Acc_x,Acc_y,Acc_z
-0.05794494,-0.05986542,0.03914826
-0.009646522,-0.02485594,-0.02258673
0.03659108,0.02384476,-0.05013264
0.02496958,-0.02618913,-0.005646211999999999
-0.01445402,-0.01952531,0.02404966
-0.02179461,-0.0005173533999999999,0.009559086999999999
-0.002233793,0.01865876,-0.004671304
-0.01228904,0.01995853,-0.01017399
-0.05212515,0.035294099999999995,-0.01147235
-0.03359149,0.01346551,-0.03550917
-0.01627329,-0.003666922,-0.03739787
-0.05080662,-0.03641997,0.0161672
0.019349400000000003,-0.05125231,-0.01171945
-0.04095344,-0.01546063,0.004952039
-0.03792855,-0.01279793,-0.008437723000000001
0.005486784000000001,-0.08792202,-0.0148618
-0.01752337,-0.09934098,0.01368282
-0.01400144,-0.01675172,-0.04502388
-0.007903911,0.01886196,0.0014463429999999999
-0.01769746,-0.004724011,-0.01333792
0.01266977,-0.06534734,-0.009915946
-0.03761449,0.003584263,0.002669001
0.002097438,-0.01678067,0.01790477
-0.009730643,-0.01871404,0.06647126
-0.03898178,-0.02545684,0.04293363
0.05005515,-0.05969137,0.007633732
0.01728301,-0.07432461,0.02338756
-0.03617384,-0.004735474,0.0369918
0.02844091,-0.01228256,-0.006698471
-0.01166191,-0.03983532,0.03154098
0.02347527,-0.01895606,0.02408365
-0.006313411,-0.06387847,0.03413513
-0.01159543,-0.02566878,0.03474733
-0.02638635,-0.002279791,0.04555222
-0.0430537,-0.008457649,0.07481712
0.007894355,-0.005608008,0.01624877
0.02384811,0.03524822,-0.011826999999999999
0.001475175,0.009693868000000001,-0.00689086
-0.01245321,0.0026912459999999996,0.05200846
0.005442186,-0.007794428000000001,0.01480236
0.01340885,-0.01020785,0.025843400000000002
0.04492111,-0.0003645318,-0.01223614
-0.007733393000000001,-0.02899755,0.03489625
0.02227645,-0.03776869,0.01757464
0.01394813,-0.02954686,0.06155976
0.03166659,-0.1028703,0.07965618
0.03061733,-0.1031104,0.01287932
0.02930818,-0.01870748,0.01496925
0.02519584,0.008508148,-0.005367504
-0.01294769,-0.04413524,0.02402682
-0.0064759119999999995,-0.05405239,0.03155376
0.02308804,-0.003124722,-0.0026501690000000004
0.01763459,-0.004890997,-0.007538262
0.004667658,0.01190936,-0.009805759
-0.01691118,0.05302699,-0.03063757
0.0277593,-0.01550232,-0.04195033
0.01965232,0.04456697,-0.02339373
0.03631495,0.001017254,-0.05243828
0.03048681,0.03805398,-0.02810461
0.02763007,0.001203574,-0.03299
0.008669364,0.06366291,-0.01242672
0.01211973,0.01587947,-0.02957016
-0.0005911564,0.03669427,0.0018166220000000002
-0.007518833000000001,0.04872481,-0.05018224
-0.03301078,-0.01325885,-0.01204274
0.00197985,-0.002321096,-0.044374000000000004
-0.01503473,0.02382608,-0.06433439
-0.01423636,-0.008987781,0.006551031
0.01797489,0.002698168,-0.03797243
-0.01051649,-0.002509789,-0.02792474
-0.02606338,-0.02733267,0.002049948
-0.01032718,-0.08650333,-0.001413731
0.004174293,-0.0533511,-0.01438844
0.008632606,-0.03334943,-0.006951626
0.02752462,-0.04400172,0.005677389000000001
0.02790987,0.02385676,-0.03991728
0.03032761,-0.06792896,0.04623719
-7.715169e-05,-0.08149023,0.05343949
0.03532135,-0.08259296,0.05431062
-0.02248865,-0.02782365,0.03020777
0.00034029220000000003,-0.03160962,0.0501077
0.009025751,-0.02687969,0.03124918
0.02717425,-0.04399607,0.0030033629999999998
-0.02624078,0.02555299,0.01058444
-0.008349135,0.006053999,0.005922295
-0.009704173,0.07555062,0.003375328
0.005124781,0.05133289,-0.02433703
-0.02608775,0.02065494,0.01711316
0.007209922,0.0249657,0.02202466
-0.006142735,0.03981413,-0.02287731
-0.02510919,0.0345922,0.01628219
-0.0154489,0.02287038,-0.008059192
-0.01343399,0.03596728,-0.0075680109999999995
-0.02200297,0.03309664,0.02557022
-0.01898731,-0.001177778,0.04276054
0.022888099999999998,-0.02342312,0.0123566
-0.02976941,0.01562596,0.06074507
-0.04794909,-0.001664291,0.06226028
0.02066975,-0.05140072,-0.0033038909999999998
-0.05276561,-0.04828996,0.0381425
-0.0013761539999999999,-0.0395916,0.03078932
0.003453338,-0.03869374,0.05083585
-0.01983777,-0.03527377,0.04909641
-0.02244447,-0.07417613,0.01849028
-0.024215,0.01622931,-0.0021073629999999997
-0.009301272,0.05394045,-0.01824767
-0.01154414,0.02812416,0.01020567
-0.01163547,0.08219989,-0.02610499
0.009515808,0.03673661,-0.04441155
0.01853046,0.05838403,-0.05124277
0.04680797,0.06645355,-0.0389484
0.05325966,-0.02638503,-0.04102264
0.05343329,-0.04842215,-0.02478711
0.01681107,-0.05614369,-0.03287283
0.02265913,-0.02913127,0.01112798
0.0122565,-0.09985618,0.01672619
0.03238327,-0.06819443,-0.0503853
0.01940851,-0.008033272,-0.02193652
0.007336739,0.01206908,0.007253349
-0.01588769,-0.006002145,0.0157268
-0.01357387,0.05433318,0.02006121
-0.02757295,-0.06775695,0.033190199999999996
-0.046917400000000005,-0.08721967,0.02586285
-0.02337215,-0.08354473,-0.02036784
-0.01353069,-0.1478681,-0.00669691
0.05808321,-0.17524579999999998,-0.08583336
0.04918142,-0.08346792,-0.10790050000000001
0.005993726,0.10186369999999999,0.04238481
0.02713872,0.2155732,0.03072514
-0.03837994,-0.06170316,0.09924266
0.00037129190000000003,-0.1230004,0.006735741999999999
0.05314517,-0.12314069999999999,-0.039131599999999996
0.0071349659999999995,0.06372976,0.02062258
0.01296558,0.05283716,-0.0300067
0.05544014,-0.04399447,0.03644257
0.006861529,0.02099294,0.043151
0.01751607,-0.01179065,0.01883461
-0.01127972,0.03697103,0.05925706
-0.03598031,-0.07097189,0.06486292
0.01805035,-0.1274013,0.01218914
-0.0071498080000000006,0.002085689,0.02139238
0.01945512,-0.005589269,0.01369452
0.02203912,-0.01578289,0.01785735
-0.05140419,0.0053594490000000005,0.03578765
-0.04317627,0.03290281,0.01928015
-0.008870743,-0.01878982,-0.026692
-0.01526642,-0.09523889999999999,0.0007902882000000001
-0.03367557,-0.03844532,-0.03069605
0.0006668828,-0.00182265,-0.06825706
-0.0007265685000000001,-0.0043740590000000005,-0.05135569
0.003266974,0.008992370999999999,-0.03569416
-0.0172842,0.06222158,-0.02795077
-0.03624528,0.05805555,-0.03523675
0.05097329,-0.1803703,0.07498049999999999
0.03082389,0.12233150000000001,-0.091167
0.02373775,0.07678617,0.04632763
-0.04916658,-0.09809478,0.033617
0.004320791,-0.08145948,-0.01742955
-0.01801029,0.01134041,-0.005218707
0.03251707,0.09725268,-0.01965367
0.04314446,0.03701157,0.03877806
-0.008226025999999999,0.001952723,-0.01819294
-0.001795334,-0.006331437,-5.798478e-05
-0.02142884,0.06005777,-0.07290265
0.0009691128999999999,0.08328884,-0.01573601
-0.02246075,-0.007273816,0.09269421
0.02080032,-0.02495566,0.01514971
0.009726562,-0.09915650000000001,-0.01759394
0.0071191990000000005,-0.10638010000000002,0.02445636
0.0013452479999999998,-0.134967,-0.009633126
-0.05149249,-0.1323171,0.002901344
-0.07083063,-0.1330044,0.0041682659999999995
-0.03612268,-0.04130235,0.007615389
-0.02215339,0.08443677,0.04056284
-0.03428859,0.09832554,0.01635263
0.002256704,0.04426085,0.04601962
-0.04561462,-0.06392034,0.02372526
-0.06886509,-0.03762835,-0.01143655
-0.05116577,-0.02333072,-0.01276565
-0.008198045,0.05778118,-0.06654742
0.02477292,0.01307569,-0.04982646
-0.01714585,0.0003261259,-0.0279469
-0.02405063,0.008768026,-0.05770104
0.004004744,0.03764511,0.01481283
-0.02082135,0.0777265,-0.03373528
0.0474671,0.08214504,-0.01962746
0.05064043,0.08474386,-0.005634353000000001
0.07562876,0.05691982,-0.01440573
0.04934707,-0.005672403,-0.0009594969
0.01579287,-0.057746000000000006,-0.01021053
0.007051744,-0.08252139,-0.005293399
0.03814131,-0.06856316,0.01280669
0.01537681,-0.08332184,0.0023411820000000002
0.03340823,-0.08316956,-0.007254725
-0.02665512,-0.07837718,0.04836603
-0.04802491,-0.03114131,0.04087075
0.007292618000000001,0.02688627,-0.002074077
0.0161389,-0.01322147,0.001237885
0.002169929,-0.005017004,-0.01772979
-0.04524383,0.01450392,0.0052781519999999995
0.02511403,-0.000947548,0.02310163
0.001237257,0.02205009,-0.001304545
-0.003794767,-0.04030529,0.03009737
0.01860285,0.02049537,0.008418473000000001
0.008964841999999999,0.03840132,0.004792502
0.01395064,-0.02564509,0.02848865
0.03129035,-0.01937287,0.012120700000000002
-0.0136054,-0.04809497,0.02060705
0.02423289,0.01141907,0.0008847276
-0.003287515,-0.03614668,0.03029427
-0.0483299,-0.0006801207000000001,0.02619253
0.00791752,-0.04814614,0.01677327
-0.02103282,-0.04859993,0.02877117
-0.0003015077,-0.0237429,0.001987707
-0.0208798,-0.06462195,-0.008238649
-0.02410019,0.02552267,-0.03862002
0.0060473440000000005,0.03793426,-0.08004368
-0.01657922,-0.01302142,-0.02948274
0.0259909,0.0105491,-0.02519903
0.016101,0.0014695560000000001,-0.04236235
-0.006221965,0.01991514,0.0111331
0.002103341,0.01131806,-0.0006242606
-0.01224196,0.03027905,0.006438869
0.03248769,-0.000744706,-0.01700504
0.01731483,-0.04589345,0.03197131
0.02683802,0.002097374,-0.04012227
0.02828911,-0.03222648,0.004952815
0.02193658,-0.03824079,-0.03678213
-0.001747518,0.005481649,-0.0431578
0.01229539,0.00431879,-0.03233149
-0.0267839,-0.01352854,-0.01369441
-0.04720591,-0.05611044,-0.0023354770000000003
-0.05577251,-0.02310204,0.01036672
-0.03120096,-0.05975984,-0.01036406
-0.04589999,-0.05893404,0.02491338
-0.03035165,0.03903913,-0.002171673
-0.028003300000000002,-0.05383781,0.09357692
-0.03269134,-0.02980806,0.07089472
-0.04134013,-0.02950946,0.05335222
-0.01854631,-0.05024461,0.02396023
-0.008870509,-0.00092851,0.02366626
-0.009389451,-0.01112139,0.03649934
-0.01477609,0.01008924,0.009843983
0.01604638,-0.006721774,-0.004192283
-0.01372738,-0.02662856,0.0430419
-0.009580364000000001,-0.04601784,-0.01263374
0.0034865509999999996,-0.008108528,0.000445042
0.01383784,-0.0049341540000000005,0.01003734
0.006174486999999999,0.02990395,-0.01109104
0.01275047,0.0248019,0.009623083000000001
-0.01872266,0.005810111,0.01271229
0.011969,0.01129762,-0.004542535
0.03021448,0.01174353,-0.02456824
0.03931895,0.02751427,-4.061498e-06
0.01834694,0.05213654,0.005136155999999999
-0.02266614,-0.0013067760000000002,0.02071367
0.01623552,-0.04007348,0.03400583
0.03457742,-0.01061876,-0.02568827
-0.02048727,0.02513565,0.007734465
-0.006773006,0.04281518,-0.03736057
0.004192054000000001,0.01568935,-0.01550811
-0.0141672,-0.03622441,-0.01238991
-0.01969631,-0.06562978,0.01784263
-0.07635510000000001,-0.03723119,0.02883944
-0.009800374,-0.007009655,-0.01302817
-0.04233382,-0.03697874,0.04191476
-0.0035132590000000003,-0.006097119,-0.03187454
-0.02878393,-0.02335436,-0.002960876
-0.04321225,-0.05884443,0.041788900000000004
-0.03523997,-0.006185362,-0.004102936
0.007432488,-0.03256942,-0.01772627
0.03808567,0.01492952,-0.02131288
0.0022911579999999997,0.0013889660000000002,-0.01103104
0.009754045,-0.02122222,0.03935656
0.01033499,-0.021159999999999998,0.02516465
0.01423621,-0.03014629,0.03158567
0.01631246,-0.05667252,0.02930962
0.05297694,-0.01871847,-0.03723389
0.01300685,-0.01582566,-0.00721883
0.03259474,0.04152975,-0.03435652
0.01210431,0.015544299999999999,-0.01270204
-0.01853419,0.02307099,-0.007473435
-0.02834046,-0.03550545,-0.001079722
-0.04158967,0.01591267,-0.04524187
-0.05500309999999999,-0.01010101,-0.01996485
-0.0036829329999999998,0.01656618,-0.04507855
-0.03781754,-0.003993239,0.005593730999999999
-0.01404811,-0.03445448,-0.002579599
-0.04035025,-0.01982437,-0.004925855
-0.03313567,0.01082692,0.0126852
-0.02932344,-0.007988887,0.005794731
0.02827053,0.02024413,-0.00965092
-0.0016110270000000001,-0.02833823,0.05328829
0.008227454,0.002114628,0.04558891
0.03020345,-0.01556433,0.006731939
0.04040254,-0.00739296,0.03465203
0.01298688,0.005633656,0.03576997
0.02323704,0.01317209,-0.02264678
-0.01251034,0.0410247,0.004167655
-0.005931574,-0.03045177,0.01017969
-0.009266193,-0.01368362,-0.0030133620000000003
0.0007807189,-0.05038815,0.0270072
0.008533385,-0.01371571,-0.0040992070000000005
0.01833811,-0.007481781999999999,0.0146429
-0.006997379000000001,0.01713058,-0.01628863
-0.008967228,-0.040613300000000005,0.003455776
-5.031585e-05,-0.02084237,-0.00021704970000000002
-0.002404033,-0.05121379,0.01524991
-0.008032545,-0.024309200000000003,0.02733375
0.002662545,-0.008329371,0.03171425
0.01208721,0.01571972,-0.01683983
-0.02178621,-0.0693673,0.06642962
-0.01370478,-0.06382287,0.06025212
-0.01053222,-0.00365506,0.01609848
0.01019499,-0.06504595,0.005806092
-0.002238691,0.003634293,0.0002290516
-0.02953591,-0.05540799,0.001189751
-0.01136643,-0.07752755,-0.001768399
0.01710476,-0.009358921999999999,-0.01576868
0.006741119,0.01642897,0.007487644
-0.01476553,0.0035812659999999996,-0.005836622
-0.02085341,-0.03532083,0.01062763
-9.336974e-05,0.008718887,-0.02431474
-0.01067183,-0.0413401,0.01963938
-0.03088331,-0.03239611,0.0323942
-0.03603909,0.04890218,-0.06114068
-0.03323679,0.01590907,-0.02241585
-0.02424884,0.0007190742,0.000269542
-0.01970388,-0.01245281,-0.02638164
-0.0048778020000000005,-0.0028158109999999997,0.01158369
0.01656159,0.005978473000000001,-0.00368164
-0.007496856,-0.02243876,0.02875342
-0.007706602,-0.05981525,0.03327445
0.02624905,-0.05906991,-0.01854588
0.01195114,-0.06079283,-0.0002507989
-0.02508768,-0.003085922,-0.0036490190000000003
-0.01772992,0.005851274,-0.012721099999999999
-0.04695677,0.001945581,-0.007822144
-0.01403675,0.01219113,-0.008729706
-0.01845443,-0.01651506,-0.01300723
-0.01433943,0.03107074,-0.03856365
0.00397693,-0.02945178,-0.04432196
0.0009598667,0.01746825,-0.02233645
0.005305076,0.03267388,-0.006828447
0.02915966,-0.02320111,-0.01762684
0.04521997,0.02863968,-0.04176904
0.03834986,0.02573193,-0.01674349
0.04504265,0.003734951,0.01503593
0.01723641,-0.03919782,0.05974951
0.0633202,-0.04226093,-0.0007511918
0.06088926,-0.07069186,0.01982309
-0.01671034,-0.005674025,0.041193900000000006
0.03445635,-0.009808266999999999,-0.009601871
-0.01872882,-0.0183326,0.02638088
0.02122431,-0.03241012,-0.0059034330000000005
-0.03236326,-0.05304690000000001,0.01263327
-0.02054916,0.004860506,-0.01015583
-0.002996265,-0.02093875,0.0401088
0.0112872,-0.0011064,0.003297907
-0.005164863,-0.009557536,0.02998604
0.01977854,0.03581474,0.005009546
-0.0026864420000000003,-0.03297746,-0.01957302
0.004421026,-0.049838400000000005,0.02205006
-0.04501296,-0.02842589,0.02990278
0.0103732,0.03209038,-0.01949459
-0.004671753,0.0051355770000000005,0.02362721
-0.0221109,0.02811263,-0.002795423
0.03790284,-0.02941217,0.01826489
-0.009570455,-0.03252902,0.03994729
0.02501142,0.03277908,0.0035108440000000004
0.0373581,-0.0106301,-0.0017659239999999999
-0.004705088,-0.007490819,0.0033484609999999996
-0.01790111,0.02139297,-0.0022272060000000002
-0.01884879,-0.01186565,-0.01270034
-0.006468476999999999,-0.09398282,0.006295588
-0.04524113,0.03175211,-0.05949497
0.02255051,0.01188764,-0.03070495
0.03328633,-0.03047554,-0.09237229
0.04095225,-0.07062739999999999,-0.05976919
0.02053514,-0.1746345,-0.1584607
0.2030669,-0.2437284,-0.03291447
-0.0659802,0.2589262,0.1279045
-0.03810432,0.05552897,0.03886183
-0.08987501,0.3327421,-0.1580956
-0.04174456,-0.21407849999999998,0.3039027
0.02804095,-0.01368393,-0.2942364
-0.1311878,0.14549260000000003,0.08019286
0.0069934590000000005,0.06697538,0.04790301
0.04493158,-0.1066271,0.10262529999999999
-0.02047605,-0.1043935,0.0001064651
-0.06280239,-0.1559385,0.04957866
-0.05904207,-0.03983526,-0.03800296
0.01637789,-0.010565600000000001,0.007413635
-0.04966979,-0.008970308,0.0026298709999999998
0.008545604,-0.03160233,0.02304475
-0.007531191,0.02588597,-0.032529
0.01854836,0.005054172,-0.01341296
-0.01264969,0.03194661,0.01253891
0.0039598820000000005,0.006480699,-0.02390264
0.02019161,-0.01340955,0.01163415
0.01394718,-0.03808146,0.02158381
0.0299935,-0.1005095,0.05993317
-0.0026262629999999998,-0.02718578,0.06436702
-0.000999257,-0.01242096,0.07247338
-0.02111094,-0.01593153,0.1059734
-0.05138769,-0.08187289,0.106743
-0.05447176,-0.06174596,0.05876772
-0.009521194,0.03760553,0.02266548
0.03143428,0.05444511,0.004349845
0.1427263,0.05741619,-0.03172601
0.08404513,0.07747166,-0.05792691
-0.009799129,0.08034337,0.01132152
-0.03968478,0.12628119999999998,0.04836193
-0.005872756999999999,-0.06278375,0.03466596
0.03761296,-0.0990154,-0.09663623
-0.02595966,-0.05766154,0.04795853
-0.01650113,0.01006636,-0.110472
0.02733274,-0.05106727,-0.08975466
-0.01071546,-0.02755339,-0.04588653
-0.004694961,-0.01186012,-0.02945103
0.01176491,-0.1330449,-0.02587014
0.0137924,-0.06967807,-0.04517239
-0.04641009,0.01802582,-0.05074853
-0.005695758,-0.07524856,-0.01042938
-0.02878928,-0.1270877,0.01433889
-0.004201159,-0.1719984,0.05833663
0.0036962790000000002,-0.1425411,0.051062800000000005
-0.03665891,0.014891399999999999,0.03194971
0.01116805,0.09679869,0.03839333
0.03501761,0.07120471,0.05227755
-0.02277741,0.0278129,0.01337466
0.03962354,0.02005536,-0.0181183
0.02080932,0.06481992,-0.02148942
0.04045624,0.06540404,-0.04019044
0.02469563,0.06486521,-0.0720168
0.05311035,0.04426211,-0.009071984
-0.02343285,0.07909643,0.03007222
0.01426362,0.02191161,-0.01946602
-0.003631203,0.004447462,-0.01669814
-0.012151899999999998,-0.00183548,-0.04824461
0.03318907,0.03395954,-0.1011087
0.01010733,-0.005267413,-0.06616081
0.06050626,-0.008507017,-0.03897073
-0.004663642,-0.06230803,-0.003643912
-0.006860341999999999,0.02517226,0.08187554
0.002488212,0.07083447,0.007838177
-0.002304671,-0.03379284,-0.03461085
-0.02441224,-0.06974137,0.03660343
-0.002501496,-0.08518463,0.03532287
-0.006079569,-0.05986685,0.03804209
-0.01355368,-0.10686459999999999,0.07932077
-0.02011432,-0.08723424,0.04035581
-0.001911964,-0.013606899999999998,-0.02064584
0.01347879,-0.02221841,0.0190157
0.0012758510000000002,-0.05419643,0.00920713
0.008026186,-0.03564947,0.01210302
-0.01947635,-0.04619015,0.04879805
-0.02750167,0.030674200000000002,0.01285302
-0.007122692,0.02623313,0.00552993
0.002372115,0.01714613,-0.01242697
-0.00584718,0.01377734,-0.004937635
0.01895077,-0.01245047,-0.02564438
0.017268099999999998,-0.02167856,0.009322792
0.02657169,-0.0007263627000000001,0.02084943
0.03091276,0.07501626,-0.03472251
0.001674398,0.03772912,-0.02399245
0.01844149,0.01612763,-0.02645596
0.02223313,-0.0161974,-0.00612263
0.01754127,-0.04642526,-0.00819867
-0.01959912,-0.004309166,-0.0331126
-0.0004096664,0.0009699687,-0.03099449
-0.0124949,0.04230056,-0.03922030000000001
0.0162388,-0.013237100000000002,-0.01058582
-0.02254178,-0.03179808,0.04419208
-0.02741975,-0.02399648,0.04317332
-0.0017477389999999999,-0.02637618,0.006128045
0.0003314686,-0.03966199,0.01320283
0.0033129970000000003,0.002178844,0.00468093
-0.009226218000000001,0.0012476219999999999,0.0107419
-0.06319441,-0.01589808,0.06324492
0.0006548902,-0.06082391,0.04674611
0.02576522,-0.06257839999999999,0.05819037
-8.004298e-05,-0.04317489,-0.01731034
-0.0121545,0.005519938,0.0300214
0.04255265,-0.001657926,-0.04220606
-0.01570948,-0.035210000000000005,0.05791512
-0.0399074,-0.01059368,0.03145339
-0.04511447,-0.03352167,0.02415756
-0.02651465,-0.03318983,-0.004187345
0.006150124,-0.04735736,-0.008576541
-0.01262138,0.05286683,-0.00583736
0.01402966,-0.0052167820000000005,0.01635301
0.013013900000000002,0.007590745,-0.02302974
0.036960900000000005,-0.02340257,-0.02191515
0.03780932,-0.01458769,0.01905463
0.02777421,0.01424912,-0.01308378
0.02008434,-0.0006473307,-0.008329327
0.02554539,-0.008211826,-0.03037495
-0.01966797,-0.02541548,0.01090389
-0.009010176,-0.01559695,0.0267301
0.006605743000000001,-0.01615286,-0.00698204
0.02261801,-0.0296281,0.03163488
-0.01360439,-0.03525402,0.04175138
-0.004480999,-0.009663976999999999,0.02671994
0.004367076,-0.02144349,0.009698113000000001
-0.0018158870000000002,-0.02327033,0.01591892
-0.04941463,-0.03666794,0.054135699999999995
0.02305121,-0.003981546,-0.02033224
-0.02956179,-2.125301e-05,-0.03025641
-0.06632174,-0.03493921,-0.00217339
-0.02050028,-0.04181506,-0.01378745
-0.05608184,-0.06857653,-0.03381233
-0.06666244,0.00123977,0.0217882
-0.03078658,0.004064580999999999,-0.03044603
-0.03857907,-0.02563068,0.02446236
-0.04189463,-0.02471917,0.03105752
-0.0038907440000000002,0.0036638770000000003,-0.0013916760000000001
0.03664226,-0.01971701,0.01678167
0.03441784,-0.00028803849999999996,0.02533187
0.0164107,-0.01173766,0.01633218
-0.02139797,0.03326973,0.05308818
0.0051635940000000005,0.03832136,-0.003552428
0.03922526,9.794533000000001e-05,-0.01484653
0.02377775,-0.001541667,-0.01913951
0.02256154,-0.02495521,0.01268151
-0.0131971,-0.009270716,-0.01368323
0.005386415,-0.05118334,0.01892122
0.00748034,-0.04009977,-0.006877517
0.02827729,-0.007588966999999999,-0.01365385
-0.02888837,0.007008454,-0.0009288937
0.03522732,-0.02286008,0.02420419
0.001762227,0.01137755,-0.01376208
-0.04312141,0.007631486999999999,0.01874739
0.02382606,0.008091431,-0.00047167760000000003
-0.01208021,0.0199576,0.01345503
-0.015330700000000001,-0.0433435,0.01207206
-0.01217412,-0.03357061,0.02608471
0.04476966,-0.01704879,0.004254803
0.02024468,-0.005700777,0.009185113
0.02607761,0.01347281,0.01484217
0.004170488,-0.01680066,0.03155871
-0.007426404,-0.03261928,0.004827737
0.006710665,-0.04137063,-0.001147689
0.02120655,0.010456700000000001,-0.04490681
0.0047982979999999995,-0.03197756,-0.01268335
0.009927562,-0.02750978,-0.0218834
0.03708031,0.003658559,-0.08485066
0.006906582,0.005674301999999999,-0.01555965
-0.02402133,-0.0024581810000000003,0.03102182
0.0412435,-0.0071301459999999995,-0.02346097
0.02354223,-0.02661706,-0.02030863
0.03357762,-0.002693519,-0.009404083
0.02087306,0.04968204,-0.015431700000000001
0.009952583000000001,0.04443932,-0.03759854
0.04533052,0.02053122,-0.04171314
0.03513452,-0.03209376,-0.0190612
0.00270152,-0.007082466,0.006979106
0.04692698,-0.0161001,0.003540135
0.01190532,-0.008330889000000001,-0.00573321
0.0353168,-0.04122588,0.00106503
-0.001287082,-0.05313814,0.053470500000000004
0.02024362,-0.02386631,0.03993759
0.02036165,-0.04227699,0.01017022
-0.02164454,0.04920538,-0.0100708
-0.01077132,0.01554117,0.003020768
0.008992933,0.02628125,-0.01157591
-0.009203069,-0.06692641,-0.003210948
-0.05154031,-0.007174734,-0.003610778
-0.02892207,-0.01260075,-0.00013123549999999998
0.0014119129999999999,0.02201126,-0.007270481
-0.02443336,-0.0264005,-0.0038601490000000002
-0.015074299999999999,-0.0314761,-0.036264300000000006
-0.02363036,-0.04063753,0.01120527
0.00575529,-0.01189845,-0.01562714
-0.01477528,0.003468663,0.008286979
-0.009139445,-0.02557318,-0.01713628
0.009475566,-0.03169477,0.009127615
0.0149214,-0.02371617,0.03565954
-0.002988245,-0.03189982,0.08090165
0.03682736,-0.03853256,0.06239563
0.04754961,-0.0169362,0.060111000000000005
-0.04136214,0.008796033,0.01294947
-0.032952800000000004,-0.01207425,0.03450258
-0.03176511,-0.0035057020000000003,0.001292626
0.03087287,-0.01875259,0.01192201
-0.003831041,-0.0201486,0.0008668209
-0.043331,0.004985212,-0.01928332
-0.03533206,-0.001356645,0.01462743
-0.01262796,0.01138689,-0.01103376
-0.002392427,0.03796555,-0.01107394
0.0073001030000000005,-0.0262039,0.03163124
-0.02395718,-0.04120817,0.002191084
-0.002221802,-0.06267257,0.01164768
-0.02283897,-0.02065622,0.03258159
-0.008448914,-0.06009083,-0.01628373
0.01130908,-0.01098178,-0.004516678
-0.02897568,0.03184935,0.01522509
-0.0009319055000000001,0.01175876,-0.00561059
0.004784473,0.006348839,-0.01900712
-0.003506183,0.02654931,-0.03448903
-0.06444767,0.0013126020000000002,-0.02556825
-0.05829253,-0.04682748,0.017161000000000003
-0.01668126,-0.03918265,-0.01413993
-0.03700253,-0.003080508,-0.0051278140000000005
-0.01814622,0.00036684239999999996,0.02157875
0.0002295254,-0.04432235,0.006224634000000001
-0.01497338,-0.07038127,0.0106235
0.01180214,-0.05793893,0.01325359
-0.003708346,-0.02742025,0.002280193
0.01331407,0.0346367,-0.03484738
0.05497187,0.02286341,-0.02026988
-0.01845274,0.01993633,0.0035813890000000004
0.009750046,0.009327468,-0.02242707
-0.03551921,0.03495063,-0.018838099999999997
-0.01169479,0.02093222,-0.03210756
0.031847,0.03944758,-0.07749869999999999
-0.02130514,0.03994336,-0.04467374
-0.01900844,-0.03033049,-0.009493005
-0.02205219,0.01277736,-0.016237
0.01324804,-0.04056636,0.07464292
0.002679192,-0.12176110000000001,0.06428088
-0.0013813629999999998,-0.09102517,0.04081361
-0.01915896,-0.07166464,0.0504916
0.07793996,-0.1556602,0.06366622
0.02194284,-0.09553398,0.030903700000000003
0.11298699999999999,-0.05820949,0.02281333
0.07604351,-0.02735011,0.04697169
0.0030680090000000004,-0.004348333,0.03804582
0.02223086,0.0210087,0.09157561
-0.002611256,0.03051042,0.0002312812
0.007830182,-0.10634260000000001,-0.06430578
-0.04298671,0.01488515,0.0006989548
-0.05901823,0.06346186,-0.04861304
0.07951942,0.03461572,-0.08379979
0.03362054,0.02853547,-0.11122069999999999
-0.08251449,0.01270444,-0.03986514
-0.08375215,0.003342978,-0.05743973
-0.09154005,-0.06327759,0.02487867
-0.13874920000000002,0.02808334,-0.01479269
-0.08804463,0.004343352,-0.005099744
0.03387637,-0.01838756,-0.0288051
0.13327270000000002,0.1032514,-0.11884280000000001
0.1034333,0.09636912,-0.0284303
0.10102639999999999,0.1610432,0.02747591
0.179148,0.09634206,-0.02669774
-0.01801492,0.1059164,0.02540344
-0.1206886,0.1154063,-0.006116111
0.05794578,-0.05436766,-0.03756579
0.06500267,0.08480748,-0.12452069999999998
0.01769313,-0.1009862,0.06263851
0.01829208,-0.02628175,-0.03987233
0.02655065,-0.1775401,0.0338699
-0.02830105,-0.108555,0.03127966
-0.02913136,-0.1023212,0.09125329
0.00378638,-0.03764473,0.02980036
0.02648148,-0.11202480000000001,0.01497615
-0.013159299999999999,-0.08883451,0.04981069
-0.0173815,-0.06118584,-0.006141351999999999
-0.03492176,-0.03192778,0.01538737
-0.06458022,-0.0351023,0.01972695
-0.01990721,0.020243,-0.04745511
-0.005014383,-0.06808173,0.04202849
-0.02196872,-0.01857259,0.004146384
0.00218716,-0.07881648,-0.00456585
-0.003927875999999999,-0.02410428,-0.03195748
-0.06145811,-0.02166363,-0.001781804
-0.05199454,0.06323688,-0.03435244
-0.00514337,-0.003859397,0.009865664
0.008340334,0.01629448,-0.02032936
-0.05240576,-0.01592033,-0.0017130270000000002
-0.03665208,0.04380117,0.01821335
-0.006030469,0.0184529,-0.002172791
0.03948282,-0.0028440109999999996,-0.02347333
-0.02165295,0.02029991,-0.005678645
-0.0370634,-0.01641387,0.03851040000000001
0.06401236,0.01894676,-0.03069077
0.009015189,0.03720745,-0.004572806
0.015394299999999998,-0.006167639,0.0008371221000000001
0.03021024,-0.02332156,0.01810142
0.007310599,-0.05679171,0.08543684
0.02937031,-0.06875116,0.04399458
0.02425803,-0.028929200000000002,0.06556626
-0.00139921,-0.04100263,0.0408539
0.006616974,-0.04747016,0.00763548
-0.003558093,-0.03462617,0.02408372
0.007465606,-0.07714614,0.01095635
0.011697200000000001,-0.07143676,0.01020642
-0.0171293,-0.05423962,0.03418108
-0.006056626999999999,0.02534791,0.01703546
0.006592061,-0.03659143,0.02430166
-0.02120449,0.01868455,-0.006684975
-0.04118201,0.01261362,-0.0022371820000000003
0.01914264,-0.03446203,-0.0664799
-0.005862188000000001,-0.03257644,-0.04364181
0.02956441,0.05376507,-0.04406482
-0.01570679,0.1098776,-0.03025842
0.01046709,0.05247318,0.0075788240000000005
0.02451248,0.04147586,-0.009415017
0.03825522,0.03565101,-0.0331232
0.03982982,0.05561012,-0.03636589
0.01175977,0.04071069,-0.01770417
0.028168099999999998,0.001779414,-0.005337748000000001
-0.0202016,0.01584058,0.001513206
0.008505756,0.006355761999999999,-0.03747418
-0.03145,-0.02695075,0.007053664
-0.004656176,-0.02716703,-0.009142099
-0.01674393,-0.03677278,0.03094085
-0.009050019,0.008904919,-0.00465404
0.05150224,-0.04606885,0.004437237
0.04150209999999999,-0.06591281,-0.01389688
0.02822957,-0.06836662,0.01683278
-0.01746322,-0.02696583,0.009476752
0.003673693,-0.0062200630000000005,0.0033700379999999997
0.003719948,-0.0212649,0.01956034
-0.06265865,-0.03941584,0.04820104
-0.012754799999999998,0.008699358,-0.01095376
-0.005037553,-0.01581474,0.007380087
0.0024080020000000002,-0.02110983,-0.01848401
0.01975743,-0.016237,0.002023723
0.05547914,-0.008866522,-0.007090965
-0.02247431,-0.005482154,0.01544216
0.01880079,0.02228372,-0.03714205
-0.001868316,0.0167556,-0.02781935
-0.02707886,0.04705395,-0.02780189
-0.0006910171000000001,0.0337457,-0.08078826
-0.02142824,-0.02293988,-0.03953181
0.04101129,0.03714795,-0.07310355
0.01690438,0.04998953,-0.02168409
0.01052528,-0.005841056,-0.02105063
0.007838374,0.007966137,-0.01145732
-0.01041091,-0.02583195,0.03919369
0.0006003552,0.01296061,0.01371056
-0.03452679,0.03813643,-0.001608416
-0.01406237,-0.02078002,0.04347526
-0.0046672829999999995,-0.01139093,0.01133086
-0.01958916,-0.04538542,0.04589723
-0.01438301,-0.04613741,0.05375357
-0.0118527,-0.053175400000000005,0.01447589
0.01049626,-0.01751371,0.001904812
-0.01228551,-0.03159384,0.002242615
-0.02521471,0.006472726,0.008516024
0.01361313,-0.02299228,-0.007954733
-0.005482794,-0.02563717,0.01001534
0.02024446,-0.007711453,-0.04238286
-0.03224714,0.01396935,-0.02218949
-0.04118831,0.007895475,-0.03266415
-0.05484685,0.006394301999999999,-0.032325
-0.01706142,0.05048472,-0.03007321
-0.02612641,-0.02956438,0.01602436
0.003571635,-0.04310922,-0.005143802
-0.01164198,-0.01456148,-0.0015287279999999998
0.01129608,-0.01173028,0.01823872
0.02306769,0.008199019,0.003363405
0.04351531,-0.004072030999999999,0.01132308
0.02713069,-0.03614481,0.06334165
