Acc_x,Acc_y,Acc_z
-0.09425465,-0.01213799,0.006281905
0.02571182,0.03238905,-0.02284008
0.007021783,0.02842044,-0.051056199999999996
-0.02150137,0.03651696,-0.05872948
-0.01991707,0.03975065,-0.03250603
-0.03423579,0.06252386,-0.05515997
0.005982016999999999,0.04426687,-0.07814005
-0.08771662,0.03120105,-0.01357154
0.002967488,0.02573965,-0.07594596
-0.0013968270000000002,-0.03100862,-0.024999599999999997
-0.01395053,-0.009698084000000001,-0.03886824
-0.0188452,0.01054678,0.0447079
-0.03922775,0.04606785,0.035423699999999995
0.009228854,-0.07232237,0.0389522
-0.002166674,0.001195689,0.04317864
0.02751558,-0.02756229,0.03364737
0.025543400000000004,-0.01028641,0.05241853
0.03960977,-0.02920796,0.0004914487
0.05175745,-0.07882694,0.04214201
0.03779915,-0.03100192,-0.008796776
-0.0041698,-0.02741795,0.01465033
-0.01542538,0.02458813,-0.01292754
0.02193053,0.006550591,0.04004819
0.03889671,-0.01751444,-0.0037743779999999997
0.02516856,-0.03456087,-0.04505813
-0.01598544,-0.05539976,0.02905329
-0.0131541,-0.0016028320000000002,-0.03765075
-0.01109059,0.004019352,0.005843365
-0.02548353,-0.01276857,0.05984448
0.007031324,0.008584732,0.01142208
0.02964214,0.008531489,0.004464587
0.02585543,-0.001768651,-0.01414957
0.03524341,-0.00035532379999999995,0.01209337
0.02998724,-0.009635334,0.01797946
0.03035975,-0.030972500000000004,0.004035052
0.02281049,0.0006696794,-0.0423409
0.007724931,-0.0021466429999999997,0.00036965120000000004
0.0222121,-0.02035642,-0.004574809
-0.004021596,0.0056506230000000005,-0.0043566659999999995
-0.005838906,0.02157914,0.0130584
-0.01063238,0.01166333,0.01883467
-0.008972719,-0.02492828,0.01009179
-0.01924315,-0.03761145,-0.001046558
-0.0013418179999999998,-0.01777157,-0.034251300000000005
-0.01630333,0.004911230999999999,-0.03551406
-0.009203381,-0.03699894,0.01722143
-0.0468028,0.0105105,0.01080865
-0.04951203,0.06453421,-0.01204627
0.0030839820000000003,-0.0546611,0.04534638
-0.02058702,-0.0242005,0.01477918
-0.01417706,0.00926195,-0.02609605
-0.05606829,0.006225105,0.008887595
-0.008587311,-0.06782803,0.04462761
-0.0418256,-0.02395103,-0.02002554
-0.01430194,6.177181999999999e-05,-0.016162100000000002
-0.01078762,-0.02055029,-0.04483026
-0.026109300000000002,-0.02840352,-0.04814854
0.002689907,-0.04016939,-0.02327049
-0.003445867,-0.05890296,-0.04334196
-0.05534951,0.03331135,-0.03649977
-0.04672361,0.02038491,-0.03374542
0.0034568209999999997,0.003662989,-0.002537825
-0.01231107,-0.0357274,-0.01228345
-0.03423497,0.01364662,0.06010372
0.0139418,0.03134957,0.02720797
0.02832131,0.05221536,-0.007251405
0.0125983,-0.07117528,0.01249779
-0.03717548,0.01074953,0.033611199999999994
-0.02297911,0.01480146,0.04644227
0.0101905,0.006712588,0.01250539
0.005030456,0.008292154,0.01758176
0.0156721,0.01067898,0.003959389000000001
0.05263567,-0.04130621,0.02215033
0.0009854203,-0.06683843,0.04275035
0.003194496,-0.01724227,0.01874806
0.03493943,-0.05264432,-0.008089254
-0.02021835,-0.02135927,-0.007073482
0.005440837,0.02961228,-0.01768509
0.05462584,-0.002103884,-0.01943017
0.01100823,0.03821813,-0.009433105
-0.06101023,0.03346922,0.02698928
-0.0186665,-0.008477155,0.001635948
0.01944292,-0.0001965368,-0.01875266
0.02293982,-0.05352281,0.04195172
0.02923543,-0.03305786,0.07245486
0.08436138,0.03320563,0.04035051
0.02530534,0.01492207,0.09126887
0.03063433,-0.008016236,0.03134225
0.05647426,0.005251786,0.0005079117
0.044168900000000004,0.004772678,-0.0008359598
0.03097264,-0.009170998,0.0009487532000000001
0.01599717,-0.06354739,-0.01012245
-0.03677496,-0.05711309,0.01375247
0.01533324,-0.02511853,-0.05213518
0.05929033,0.002013687,-0.03590682
0.0010971960000000002,-0.01394566,-0.04038545
0.01475888,-0.07101678,-0.04843273
0.0171637,-0.02125682,-0.01547269
0.01344566,-0.0171521,0.003366867
0.008699057,0.00771965,-0.03244979
-0.02109981,0.0003067926,-0.005489491
0.0185224,0.02490848,-0.04629923
0.04070849,-0.01477886,-0.04745606
0.005462239,0.02147892,-0.01248276
-0.05931664,0.0065803419999999994,-0.01538656
-0.03933749,0.0061000609999999995,-0.02221343
-0.059688,0.01083501,-0.02717195
-0.02305201,-0.0206042,-0.01539392
0.009936718,-0.02948655,0.01386455
0.01121314,-0.04509588,-0.01241074
-0.04924129,-0.02422087,-0.01260968
-0.03436396,0.04030941,-0.001218579
0.0008792747,0.004654777,-0.02912372
-0.01042086,0.008582115,-0.0112539
0.03443043,0.006911955,0.008478602
0.02818523,0.04299807,0.00036202
0.05734412,0.02077955,0.03209404
0.02224527,-0.001364304,0.06058636
0.1094337,-0.06996317,0.01408084
0.0626082,0.01568074,0.03760976
0.07070927,0.03091341,0.01906013
0.0556876,0.009615736,0.05128664
0.05300919,-0.03043826,0.07292103
0.1085752,-0.03672913,0.04246715
0.08914789,-0.0671377,0.05065253
-0.016921400000000003,-0.01973061,0.00013510319999999998
-0.08237383,0.06432924,-0.00612136
-0.07772506,0.0337525,-0.00624202
-0.07354944,0.00462155,-0.02504747
-0.1252898,-0.07098045,0.06190684
-0.06061763,-0.1054895,0.01297491
-0.0300312,-0.002854921,-0.003962249
-0.02612163,0.11168039999999999,-0.004322923
-0.009824956,0.16078220000000001,0.02082581
-0.03449254,0.15248699999999998,0.04357625
0.0136362,-0.0864173,-0.02892971
-0.055536,-0.005658329,0.0031088659999999996
-0.06920043,0.02025807,-0.0509843
-0.01577316,0.02568047,-0.0300455
-0.02158413,0.003980054,-0.009084968
0.01255025,-0.00150422,-0.03168034
-0.0019234179999999999,0.06697451,-0.002390831
0.04355146,0.07187611,-0.05917474
-0.006045811,0.06962919,-0.0641704
-0.0069933009999999995,0.02994615,-0.02847246
0.002438758,0.03737499,-0.05143014
-0.0156845,0.03657069,-0.03479996
0.0053702540000000005,0.04093131,-0.08823358
0.004789954,-0.01087605,-0.06720373
-0.04840222,0.03395743,-0.007116661999999999
0.001486029,-0.02567109,-0.02049711
0.01423137,0.00807206,-0.04167466
0.0100253,0.007388579,0.0031168640000000004
-0.02871128,-0.04968563,-0.0138631
0.009698062,-0.1691238,0.01862097
-0.007608966,-0.11738,-0.0008137960000000001
0.008358832,-0.07520729,-0.05964923
-0.00424371,-0.05569211,-0.01767351
0.02083706,-0.05566535,0.005374618
-0.02596392,-0.09449077,-0.01765245
-0.04485304,-0.09681484,0.00370335
-4.85871e-06,-0.06553728,-0.04424716
0.05538176,-0.07748161,-0.02272343
0.02822139,0.02366927,0.009400226
0.03655228,-0.02687281,0.04345437
0.06421838,-0.1045329,0.04035182
0.011284700000000002,-0.08055378,0.03840775
-0.02198865,0.0018856970000000002,0.01983802
0.03383658,-0.04618279,0.05515528
0.1263691,-0.003026726,-0.03997699
-0.01049585,-0.005790152,0.1082057
-0.01879983,0.01198611,0.04768639
-0.03732474,-0.0005819388,0.05460468
-0.006108414,0.01897298,-0.01472704
0.008511971,-0.00586769,0.03759387
-0.0034647009999999997,-0.001071893,0.04937201
-0.01402121,0.0003515966,0.02653066
7.887464e-05,-0.02916038,-0.03373313
0.005925141,-0.10909200000000001,0.005971999
0.02957349,-0.09105988,0.06890653
0.02701379,0.01998084,0.09822607
0.03705792,-0.07769788,0.10182189999999999
0.03137186,-0.07366127,0.1334997
-0.05486936,-0.07214979,0.1969628
-0.10254260000000001,0.11565170000000001,0.1507203
-0.05458062,0.01186585,0.1662467
0.01771074,-0.08415852,0.08116934
0.004005356,-0.1328733,0.01181258
0.01875552,-0.143547,-0.02362097
0.02322953,0.03235433,-0.11672830000000001
0.05458854,0.0434825,-0.1310502
0.01931492,0.05927346,-0.15186739999999999
-0.02376968,0.05947775,-0.1255474
-0.04708515,0.04450251,-0.11583710000000001
-0.04240409,0.09127605,-0.11258679999999999
-0.04711376,0.09020989,-0.06237772
0.009452403,0.01984328,-0.06852783
-0.03087841,0.01451157,-0.05870717
0.01928392,0.09433508,-0.1197138
0.02032308,0.07489929,-0.03449969
0.03419152,0.009729118,-0.002671828
0.01778423,0.02808698,-0.04199016
0.02106159,0.02084146,-0.012968700000000001
0.041432800000000006,-0.0001025177,-0.08768807
0.02402275,-0.008874311,-0.0325014
0.04116969,-0.01441634,-0.04599094
0.03478256,-0.06926951,-0.04770765
0.03520004,-0.09925593,-0.05202631
0.01360843,-0.07728073,-0.01383549
0.01797274,-0.05503184,-0.006827758000000001
-0.05398801,0.0038849740000000002,0.02218253
-0.02940148,-0.03279858,0.01455068
0.003738975,-0.0546365,-0.01428105
-0.01934243,-0.05895253,0.01088621
-0.00486643,-0.01549767,-0.01607081
-0.009225242,-0.03003435,0.02605045
-0.020725200000000003,0.002446523,-0.02541333
-0.0006260108,0.01331969,0.03583932
-0.01583228,0.05259993,0.01884149
-0.01986462,-0.02209313,0.06026887
-0.02911716,-0.09242626,0.03395075
-0.01543653,-0.01864574,0.02073148
0.02585014,-0.08277231,0.006401479
0.007014683000000001,-0.005507153000000001,-0.0028639579999999998
0.02404852,0.03812008,-0.04123557
-0.0503505,0.04112378,0.02381613
-0.00689241,0.0028576659999999996,0.01449064
0.005341969,0.02201203,0.03511462
0.03752863,0.02711873,0.01555691
-0.0001987377,-0.03823185,0.04054399
0.01059318,0.002406083,0.04301967
-0.0037293490000000003,-0.07072936,0.09418456
0.01766297,-0.02734141,0.04144771
-0.01231096,0.01985159,0.02795891
0.002416112,0.02141384,0.04712137
0.02466948,0.002569831,0.02621073
0.0017565570000000002,-0.01852724,0.02408247
-0.009952947,-0.09616581,0.03526734
-0.006266091,-0.07391468,0.004530269
-0.001730924,0.01853595,-0.007850805
-0.04440672,0.03261897,0.03057415
-0.01657427,-0.02043458,0.0074830980000000005
0.03827213,-0.013528100000000001,-0.003967411
0.00232176,-0.01844326,-0.01310942
0.01929039,-0.024549,-0.02415762
0.01450841,0.07027823,-0.03281895
0.00159198,0.02572967,-0.004250696
0.06840611,0.02222398,-0.05435602
0.033117400000000005,0.01260092,0.0059761219999999995
0.01505805,-0.03311374,0.03189864
0.03603023,-0.05736391,0.03456109
0.02073374,0.01484881,-0.01023822
0.004227158,0.08459388,-0.026919400000000003
-0.04269903,0.009606069,0.002535086
-0.005923435,0.006552774,-0.035971699999999995
-0.02751104,-0.01813014,-0.04904235
-0.05632745,-0.004857707,-0.04125078
-0.05107072,0.02508069,-0.05069726
-0.03487395,-0.003448062,-0.00991762
-0.02555163,-0.006448871,-0.01813022
-0.03342546,-0.00598844,-0.06259450000000001
-0.0029366759999999996,-0.03371689,-0.03054508
-0.01847687,-0.02880136,-0.02733302
-0.03554208,-0.02954669,0.00694441
-0.03076469,0.05235377,-0.03931898
0.047611400000000005,-0.03402764,0.002610249
0.03756215,0.03816285,-0.0172044
0.004986931,-0.04312983,-0.007130129
0.01287473,-0.02184837,0.008590344
0.03663602,-0.02704014,0.00588668
0.02963624,-0.00347237,-0.0001078257
0.05955446,0.02000121,-0.05885895
0.02760992,-0.03130184,-0.02060311
0.04371487,-0.04113994,0.008251735
0.027681900000000002,-0.02282642,-0.01386918
-0.01600609,0.0001726896,0.006860448000000001
-0.01634669,-0.003108542,0.02303379
-0.01793347,-0.0006178347,0.017441400000000003
-0.04309285,0.04986652,0.005117846
0.01288247,-0.04491096,0.03071123
-0.04988246,-0.0015551820000000002,0.04470867
0.00587865,0.002445428,0.01914159
-0.03703227,-0.01890198,0.05993582
0.002471156,-0.0002460647,0.05663431
0.02017694,-0.03104905,0.03176499
-0.02096525,-0.0343383,0.06827986
0.02744592,-0.02134685,0.00716823
0.03387272,-0.01603816,0.01115562
-0.02134798,-0.01274142,0.01719342
-0.01003222,0.0060856519999999996,0.01134737
0.0001208996,0.03156624,0.02632593
0.05686164,-0.01687435,0.02286751
0.04941469,0.0034682009999999997,-0.03219411
-0.004724209,0.03470137,-0.02058605
0.000557102,-0.04430033,-0.004052868
-0.0063862369999999995,0.007752114,-0.01217582
0.01748693,-0.02892022,-0.02330294
-0.0012428019999999999,-0.01533749,-0.005247457
-0.01062906,-0.01663026,0.01201893
-0.002510474,-0.006114257,0.03304002
0.01772991,0.01920943,0.01034281
0.01192685,-0.01737913,0.02577678
-0.01994317,-0.05352969,-0.03040385
-0.03712807,-0.08787813,0.01228297
-0.02486853,-0.04328449,-0.03246921
-0.01008994,0.03082362,0.02213358
0.02363718,-0.00655064,0.03055381
-0.006588178,-0.02163337,0.04133289
0.002950037,-0.09630311,0.03462877
0.01175489,-0.007482316,0.02022892
0.01720732,0.0077545290000000005,-0.028165100000000002
-0.02163325,0.03914156,0.00973421
-0.03379182,0.03552927,0.004088941
0.005047438,0.001431869,-0.007902289
0.02298125,0.02714428,-0.02603819
0.005517811,0.04825182,0.0140876
-0.008580428000000001,0.0262925,0.02822172
0.001925364,0.05685639,-0.03809776
-0.001245871,-0.008127633,-0.02514177
-0.01062055,0.01865387,-0.03865793
-0.04701202,0.04780054,-0.03328346
-0.05550794,0.007817883000000001,-0.00116466
-0.0463972,0.02390907,0.007384994000000001
-0.04755588,0.009535390999999999,0.009412213000000001
-0.03032039,-0.03457631,0.02223704
0.06196244,-0.07265872,0.000287829
0.0011505060000000001,-0.03667199,0.01951649
-0.03101376,-0.05217119,0.03386306
-0.01366812,-0.09587723,0.05383135
-0.01270384,-0.02591473,0.02483383
-0.002264571,-0.01195094,0.03077424
0.05219303,-0.01459372,0.01058542
0.0117797,-0.03375045,-0.004030764
0.02520221,-0.05633461,0.05984871
-0.02033786,0.02029367,1.539011e-05
0.01282894,0.02821177,0.01231034
-0.008362975,-0.04670645,0.03294973
0.009405011999999999,-0.01080528,-0.023174200000000002
0.0117945,-0.04382639,-0.02332428
-0.003538918,-0.06338677,-0.01011031
0.02277484,-0.48781450000000004,0.4133138
-0.07348677,0.1531688,-0.03289622
-0.04005578,0.1363116,0.01122798
-0.02660365,0.1992689,-0.1222778
-0.0639687,-0.07878622,0.08807127
-0.03863323,0.08191372,-0.17739960000000002
0.0205578,0.06637102,-0.08894017
-0.02580437,0.05754996,0.06467849
-0.0126616,-0.03572018,-0.0006170791999999999
0.030511700000000003,-0.000340525,-0.02155955
0.03880448,-0.009365208,0.007106701
0.01917942,0.02374868,0.006979531999999999
-0.01865911,0.01472064,0.05206671
0.01164327,0.009602201999999999,-0.004229837
0.02535715,-0.07708401,0.03309564
-0.02447041,-0.06605974,-0.02458595
0.007049576,0.0035231409999999996,-0.007452912
0.03649155,-0.06772438,0.0024497
0.03534154,0.0039863979999999995,-0.02995494
-0.003245315,-0.11176939999999999,0.01130854
-0.018483799999999998,-0.06825104,0.04697513
-0.01019826,-0.07280999,-0.028210700000000002
-0.02964099,-0.07621092,0.02016191
0.01191396,-0.02525476,0.008216273
0.05124695,-0.01660397,0.01279587
-0.01827496,0.04504258,0.05789931
-0.02423024,-0.00216896,0.057233000000000006
0.004234685,0.01319873,-0.003597509
0.01254625,0.007343835999999999,-0.02841977
0.056348,-0.002182845,0.05040572
0.02356013,0.005820589,-0.004694261
-0.009684659,0.01924311,0.02507369
-0.04042321,0.08832016,0.03636084
0.08883977,0.1303856,-0.08702269
-0.01522966,0.08548293,-0.01681865
0.003576495,0.08990283,-0.07486232
0.007993087,0.1484009,-0.1131147
0.01531778,0.02212245,-0.007043765
0.04774027,-0.0459919,-0.03990154
-0.04756652,-0.03993858,0.0404142
0.01500155,-0.00013297799999999999,-0.07173043
-0.0111028,0.03595559,0.01388053
0.007749786,0.01125226,0.02103538
-0.008494098,-0.12574680000000002,0.09754532
0.00039514620000000004,-0.1575724,-0.007624368
0.06564473,-0.04277537,0.07222576
-0.02077336,0.002143979,0.08752212
0.02582234,0.08070261,0.08482625
0.01163166,0.05281775,0.1007187
0.03262811,-0.1301423,0.07112224
0.03588875,-0.10518949999999999,0.00335547
0.02278486,-0.04728137,-0.03287155
0.03632562,0.0005866456,0.0029979290000000003
0.0197986,0.025015700000000002,0.0317113
0.007472526,0.08054885,0.060368899999999996
0.007822786,0.05963388,0.009532428
-0.009588879,0.18507179999999998,0.11918510000000002
0.008636000999999999,0.1328098,0.14208289999999998
0.01106095,0.1232224,0.17429270000000002
0.02583535,-0.01246846,0.08544379
-0.05337847,-0.08494731,0.0019537829999999997
-0.07256627,-0.08948727,-0.05466907
-0.06114311,-0.08559318,-0.05148062
-0.06438883,0.02068704,-0.05489635
0.009506524,-0.0006313883,-0.1046711
0.02401752,-0.08720912,-0.1007328
-0.02694395,-0.1546058,-0.0688722
-0.054250099999999996,-0.1936292,-0.03575943
-0.08971121,-0.15153540000000001,-0.07343456
0.004577295,-0.1555914,0.009775186
0.03086722,-0.09055424,0.02817396
-0.01478659,0.054961699999999995,0.1105952
0.01577597,0.1412816,0.06043148
-0.002914515,0.1370524,0.013035900000000001
-0.003826591,0.09735339,-0.00858644
0.0022060179999999997,0.1692419,-0.04737495
-0.0034931359999999996,0.1202093,-0.08096123
0.013796100000000002,-0.08810361,-0.08716199
-0.0036915470000000003,-0.05320005,-0.09262296
0.01867892,-0.03705404,-0.07426178
0.02154384,0.06479944,-0.07105801
0.03805818,0.007797342,0.007678597
0.02972873,-0.01655203,0.004974582
0.02117312,-0.03312631,0.007057464
0.01060687,-0.03654338,0.002096289
-0.02024409,-0.02508762,0.01515932
0.008113927,-0.0046772229999999995,0.006571909
0.008371253,-0.02756833,-0.03526403
0.01248363,-0.04295191,-0.0062329230000000005
0.021874599999999998,-0.03812076,-0.04184327
0.02880752,0.053443,-0.06995809
-0.01663255,0.0129584,-0.01977149
-0.01285766,-0.02838857,-0.003530292
-0.03447535,0.01200136,-0.014601900000000001
-0.01085173,-0.005507840999999999,-0.007530657
-0.0143369,0.03430598,-0.02243408
-0.02049843,-0.02352279,0.01602321
0.007463336,-0.0416795,-0.003242298
-0.0280832,-0.001964858,-0.01089698
-0.02223598,-0.004539011,-0.005291988
-0.04257559,0.01157096,-0.01018761
-0.02770389,-0.006954729000000001,-0.01789823
-0.01574706,0.06360361,-0.04479587
0.01252742,0.01432866,-0.05979751
-0.003656566,-0.0052903030000000005,-0.01455944
-0.01393991,-0.04613929,0.02552153
0.03847827,-0.001437541,-0.02991488
0.02528101,0.06131672,-0.01945715
0.04027154,0.01301811,0.007497709
0.05695716,0.0062428169999999995,0.03514703
0.04008341,-0.00303609,-0.0028875140000000003
0.02005016,-0.05221885,0.03856913
0.04545781,-0.01942312,-0.0056726319999999995
-0.01899817,0.007467268000000001,0.02038392
-0.009972596,-0.0016642229999999998,0.04604578
-0.04176169,0.01523774,0.05082783
-0.01186706,-0.05409546,0.07401976
0.002065869,-0.04816636,0.02401479
-0.0271695,-0.08362874,0.04943605
-0.005651671,-0.07917719999999999,0.02400525
0.0140341,-0.002393544,0.0002712063
-0.002401245,-0.05233452,0.04882032
-0.01211595,-0.001195101,0.04680558
0.01642252,0.01490817,-0.000151712
0.03148964,-0.005272988,0.03377483
-0.04370636,-0.01581416,0.06142143
-0.03579216,-0.003673799,0.02044186
0.04174875,-0.03758729,0.02994031
0.03949049,-0.04533066,0.05078348
0.03573937,0.0009862976,0.02245123
0.02248475,-0.05573385,0.02338547
-0.01679764,-0.08196883,-0.004948491
0.03829899,-0.01501618,-0.02873177
-0.00305089,0.04530021,-0.01352311
-0.01757889,0.03077027,0.006631997
-0.02126128,-0.001325652,-0.01375598
-0.01802973,-0.01781573,-0.03361515
-0.016194200000000002,0.03319766,-0.01216947
-0.03273022,0.02262633,-0.007599829000000001
0.006653536999999999,0.03011372,-0.01642304
-0.02420012,0.0413899,-0.05116937
0.008754504,0.03040054,-0.03465535
0.02124947,0.0021535079999999997,-0.005976093000000001
0.01477419,0.015569399999999999,-0.05284775
0.008070326,-0.008620176,-0.027751099999999997
0.02077637,-0.01126698,0.01160047
0.06468586,0.01134067,-0.04450217
0.03286301,-0.03330726,-0.01473958
0.02373837,-0.05327221,-0.04318961
0.0009055203,-0.03874369,-0.03643979
-0.03425389,-0.08965944,0.0008760272
-0.05186282,-0.06615774,-0.02438287
-0.0278639,-0.04661419,-0.03651978
0.0028736490000000003,-0.01953053,-0.01091606
-0.01658223,-0.054273800000000004,0.03360666
-0.01795377,0.005784772,-0.001007389
-0.01619545,0.04133566,0.03779186
-0.003395959,-0.001402676,0.02378559
0.01136339,0.03459489,-0.01037669
-0.006741136,-0.0060460309999999995,-0.0035952040000000003
0.003084693,0.04501574,-0.002345776
0.009576099,0.06283369999999999,-0.05994188
0.006502761,0.06250887,-0.02082612
-0.01300455,0.04655515,-0.03248225
0.03590184,-0.00748869,-0.06005296
0.03045514,-0.06559972,-0.04649734
0.02293046,-0.01242114,-0.02581571
0.03652756,0.0057659569999999995,-0.03603013
0.02142211,-0.01482377,0.0015333920000000002
0.01905469,-0.06336476,-0.01569128
0.02047968,-0.03110454,-0.03424291
-0.01596745,-0.02924575,0.03280749
-0.01702737,-0.02361348,0.0511861
-0.01746849,-0.0042469909999999994,0.02966256
0.01296809,0.009154778,0.02774761
-0.01481442,0.02700021,0.04699844
-0.0008082348,-0.02490946,0.01898923
-0.02513854,-0.009594569,0.0265067
0.01125646,-0.01790801,0.003002794
0.04632325,-0.03468827,-0.008345969
0.03057112,-0.003576713,-0.004075093
0.008494144,0.03844385,-0.0031410809999999996
-0.03538407,0.0535114,-0.005247385
0.005362316999999999,-0.0396837,-0.01868499
-0.0169478,-0.04742351,-0.005095379000000001
-0.03491735,-0.02847252,0.03946201
-0.01345434,0.03039449,0.02996669
-0.03326016,0.0038057140000000004,9.687896999999999e-05
-0.03443328,-0.005901676,-0.02455484
-0.001377779,0.02302602,-0.031434
0.03502209,0.03539116,0.005211835
0.01995733,0.03259189,-0.0019278189999999999
0.02127344,-0.01889228,0.0027527790000000003
0.02010672,-0.02038832,-0.007837041
0.01723693,0.02226463,0.006414087
0.02895735,-0.03019724,0.008149834
0.04178979,-0.02297283,0.0031531009999999997
0.0260503,0.01989777,0.02083828
0.0403509,-0.02528098,-0.01771223
0.02167719,-0.07640746,0.02889222
0.001887295,-0.06860635,0.03485579
0.007639534,-0.04607424,0.00781419
-0.01183307,0.02180097,0.002630858
-0.01220559,-0.0014320420000000001,0.0179771
-0.03103562,0.03540728,0.01195161
-0.036009,-0.02045817,0.03949434
-0.01161843,-0.07470922,0.04250046
0.01276539,0.04285358,0.011251899999999999
-0.01084161,0.04000261,0.00861818
0.00840074,-0.084253,-0.005883101999999999
0.04670309,-0.07698267,-0.03780182
-0.01822053,-0.02323204,-0.05366515
-0.03854122,0.04290417,-0.06345175
0.003887802,0.074945,-0.04218052
-0.02524123,0.05528439,0.0001185634
-0.01240508,-0.01222614,0.02271823
0.0026113860000000003,-0.009238796,-0.06178934
-0.002935653,0.02864347,-0.02558384
0.01145561,-0.07650758,-0.006241745999999999
-0.01144782,-0.01310537,-0.03282697
0.01860924,0.02125375,-0.03844193
-0.007462433,-0.02043625,0.01581643
0.02563835,-0.01131673,0.01499448
-0.003346446,-0.01132757,0.01751731
0.01074276,0.011904099999999999,-0.02327324
0.01978099,0.01738055,0.005867267
-0.02694755,0.025540599999999997,0.02273814
-0.03624234,-0.03759244,-0.01540458
-0.03525349,-0.01269231,-0.01636882
-0.02123501,0.1304124,-0.01096057
-0.007730674,0.04776074,-0.00021925799999999998
0.01868864,-0.17713520000000002,0.05845135
-0.01911767,-0.09427513,0.02230099
0.03060905,-0.07892004,-0.02759382
0.04997902,-0.06972048,-0.04818314
-0.01229624,-0.01346126,-0.005128077
0.02441025,0.06024221,0.03019046
0.04139328,0.12275150000000001,0.06109878
0.08458889,0.10313139999999998,0.03389557
0.0373082,0.02374602,0.06403056
0.042494800000000006,-0.03305744,0.04193947
0.02225654,0.03401562,0.03774869
0.00026260220000000003,0.07583548,0.03133277
-0.01212445,0.06942066,0.007564181999999999
0.01879244,-0.05074792,0.013700200000000001
-0.009813811,-0.05547822,-0.01738654
-0.03694243,-0.05396666,0.002609301
-0.02108541,-0.1394889,-0.01138512
-0.03597713,-0.08047129,0.02617807
-0.01597156,0.03113467,-0.01016523
-0.06012155,0.05446175,0.0161617
-0.06989789,0.03425969,-0.007563962
-0.07889774,-0.02356712,-0.00292906
-0.11571780000000001,-0.06458631,0.04089813
-0.1244711,-0.08393933,0.01423022
-0.05762868,-0.01984365,-0.01352534
2.531894e-05,0.09600753,0.03171446
-0.04017028,0.06742746,0.1000081
0.02202144,0.06505924,0.09970098
-0.02894349,0.1309127,-0.12069790000000001
-0.02825891,-0.24295329999999998,0.143192
0.1632833,-0.24173240000000001,-0.1815962
0.07822506,0.004994839,-0.2270953
0.07426319,0.1858425,-0.01981124
0.20821520000000002,-0.01076281,-0.000236664
0.1385556,0.09681338,-0.07669578
0.04335367,0.152113,-0.04974686
0.02664068,0.06427228,-0.07799146
0.06014856,-0.0008961558,-0.08676414
0.07155565,-0.06558702,-0.08918272
-0.03360717,0.06653225,-0.06112159
-0.03703775,0.06884125,-0.05516777
-0.003689136,0.03467881,-0.07489019999999999
-0.0204294,-0.08798768,-0.0207074
-0.03141393,-0.09094758,-0.02510412
-0.1151018,0.03155504,-0.008307874
-0.07143378,-0.01328328,-0.004736183
-0.10467730000000001,-0.156184,0.040341699999999994
-0.1108888,-0.18063320000000002,0.01443112
-0.08015032,-0.1532706,-0.00944072
-0.1049432,-0.0110641,0.007241825
-0.03473952,0.10478989999999999,0.02175232
-0.008908899999999999,0.1033687,0.01548412
0.07402939,0.09272709,0.05307296
0.1023409,-0.06370839,-0.03172601
0.1009776,-0.01311074,-0.07024845
0.08948366,0.01975274,-0.02762117
0.09648369,0.1269931,-0.007805103000000001
0.05682527,0.12962910000000002,-0.005254955
0.06990477,-0.03158606,0.01802778
0.03249334,-0.06176688,0.01883991
-0.01858244,-0.04537544,0.045688400000000004
-0.01954269,-0.01941824,-0.01358611
-0.01994101,0.02519076,0.01132264
-0.02123773,0.02009079,0.0064184640000000005
-0.009997621,0.0284103,0.026499099999999998
-0.001482552,-0.03355871,0.07528969999999999
-0.02567464,-0.08175945,0.06365319
0.004492208,-0.1533773,0.08669511
0.03994774,-0.13161910000000002,0.01640018
0.05586139,-0.0855993,0.05057964
0.10492,-0.1340422,0.0706245
0.09934799,-0.02866527,0.07487281
0.14365479999999997,-0.08801351,0.0524423
0.1194326,-0.04497618,0.04845705
0.06950574,0.02434124,0.01103889
0.08189086,0.0264343,-0.004849341
0.05375282,-0.02026088,0.01826413
-0.008423428,0.03785256,-0.01728309
-0.05396642,-0.008014753000000001,-0.02392267
-0.02229273,-0.0008765822000000001,-0.03539505
-0.06073518,0.03662794,-0.03569448
-0.07655691,0.02124867,-0.04036215
-0.06539246,0.06154573,0.01109373
-0.08362839,0.10904489999999999,-0.03118376
-0.11723099999999999,0.01126102,0.02145457
-0.12295299999999999,-0.0067995419999999996,0.02739996
-0.1458797,0.02727937,-0.0009914041
-0.1486481,8.257665000000001e-05,0.02490439
-0.11253519999999999,0.03560145,-0.01806293
-0.13412290000000002,-0.03300331,0.03378459
-0.1149841,-0.02452237,0.008417685
-0.09468358,-0.01672957,-0.0030018709999999997
-0.06832632,-0.02204631,-0.006185759
-0.06763995,-0.04013205,0.01598993
-0.0975048,0.01619259,0.002407473
0.02895412,0.004388947,-0.05471175
0.01298037,-0.04225848,-0.02127771
0.06733578,-0.02945151,-0.01740138
0.06804688,-0.04852776,-0.01843957
0.04343576,0.06327979,-0.009197021
0.09741972,0.0605645,-0.03152386
0.06307092,-0.03159793,-0.007136336
0.05274685,-0.02941219,0.01464617
0.08686121,0.01624019,-0.004912514000000001
0.1074971,0.01159242,-0.03317232
0.05483158,0.04666338,-0.02952644
0.07048818,0.008120643,-0.02180131
0.04792419999999999,0.002304323,-0.0301937
0.02633822,-0.03522738,0.003759019
0.01633325,-0.06170999,0.005824395
0.04007537,-0.03035617,0.02410495
0.02949018,-0.0004649889,0.02743989
-0.0006462997,-0.01452021,0.0535937
0.008870685,0.03147417,0.004408925
-0.0032481370000000003,-0.0019184999999999998,-0.0020505370000000003
0.008392449,-0.007969395,-0.007244635
-0.01898302,-0.0019664129999999998,-0.009873068
-0.02499015,-0.004509509,0.01668215
-0.00043403919999999996,-0.03154436,0.03346042
-0.0356056,-0.009823387,0.03091126
0.003041828,-0.02589716,0.03853554
0.006055616999999999,-0.02514517,-0.003211365
0.004596967,-0.030810700000000003,0.04141869
0.01415398,-0.03233989,0.01840648
-0.009651039,-0.03206504,0.04376392
0.004672524,-0.013818500000000001,0.01050606
0.02086306,-0.06187423,0.007012479
0.03352896,-0.07412492,-0.00283473
0.009017047,-0.01370625,-0.0022133820000000003
-0.0157621,-0.02398401,0.01151601
0.001981563,-0.005583081,-0.03144167
0.01519106,-0.02828211,0.01982093
-0.02704312,0.01134984,-0.00938718
0.001929062,0.01348775,0.01093701
-0.02275634,0.02536002,0.000186203
-0.01547874,0.03421915,-0.01173228
-0.02477998,-0.003739703,0.0009719525
-0.03724879,0.04457246,-0.03513502
-0.06615875,0.0026173999999999998,-0.006081402
-0.001338935,0.008718375,-0.007350631
-0.01684453,-0.06313139999999999,0.009631796
-0.03365162,-0.03715485,0.01653896
-0.05895897,-0.02983464,0.003318863
-0.005588203000000001,-0.04739433,0.03663841
-0.06503366,-0.03622955,0.01297932
-0.03061543,0.03060832,-0.01370298
-0.01993617,0.01860285,-0.05739153
-0.024781099999999997,-0.01134618,-0.02287621
-0.03584701,-0.01176489,-0.01739107
