Acc_x,Acc_y,Acc_z
0.03578904,-0.02346396,-0.03197068
0.03354079,0.06093258,-0.009333115
0.01298372,-0.04934584,0.04459217
0.008121634,-0.01607227,-0.01101182
-0.04996713,-0.005130872,0.01276112
0.01664125,-0.02252755,0.008236202
-0.02958371,-0.0277377,-0.01413004
-0.02036951,-0.06931445,-0.0260764
-0.05952435,-0.04400691,-0.05326509
-0.04108937,-0.05015422,-0.04759171
-0.01373202,-0.06307552,-0.04205067
-0.03591434,0.01189185,-0.03811463
-0.01723861,0.03746916,-0.02422268
-0.03921484,-0.03210416,0.03220679
-0.0137489,-0.01117086,0.01714418
0.004275984,-0.01868025,0.02695701
0.04151887,-0.01266853,0.0009735319999999999
-0.01004902,0.01439023,0.004849724000000001
-0.02137366,0.03518664,0.04812444
0.04916709,0.01028522,-0.0017295589999999999
0.03095917,-0.007482203000000001,-0.01169317
0.01492687,-0.04947704,0.013119
-0.01295441,-0.0162898,0.03125124
0.00268501,-0.0008419082000000001,0.05160979
0.02669185,-0.03860135,0.07038651
0.02240638,-0.04686369,0.03587092
0.05116130000000001,-0.03632186,0.007746384
-0.001362621,-0.02100619,0.01295924
0.02223302,-0.046824300000000006,0.0337844
0.05408411,-0.0697591,-0.01608626
0.04790978,-0.05909643,-0.03120507
0.02080763,0.03263307,-0.03431346
-0.01264846,0.03157428,-0.0071381280000000005
0.009225398000000001,0.01370813,0.0037180409999999996
-0.009284119,0.02323458,-0.02936183
0.003214561,-0.01712414,-0.01797388
-0.03268688,-0.03866665,0.006125594
-0.01531014,0.01604625,0.01200091
-0.03381805,0.001405776,0.01699648
0.01939894,0.02392588,-0.03640588
-0.01670408,0.005438913,0.00872121
0.02316145,0.0123445,-0.0133532
-0.03371023,0.0158225,0.02072266
-0.03836771,0.0100765,0.04751915
-0.02062797,-0.007517345,0.02756189
-0.02588134,-0.05746069,0.01827404
-0.01236694,-0.0362975,0.01605183
-0.02993161,0.02896223,-0.01070778
-0.003337449,-0.07545157,0.007571688000000001
0.02286064,-0.09819596,0.004248769
0.0008045156,0.005157053,-0.04497746
-0.01614711,0.01225108,-0.05986197
-0.02163721,-0.03598844,-0.001110571
-0.04370265,0.03218883,0.01212292
0.02882062,0.08393351,0.005986081
0.03341679,0.01929745,0.09806991
0.08286241,-0.05249051,0.01332931
0.001295736,-0.09762184,0.047714099999999995
-0.09809784,-0.006066586999999999,-0.01684139
-0.03892796,-0.1466395,-0.06019576
-0.006652106999999999,-0.10469819999999999,-0.04757006
-0.02401001,0.001082756,-0.08617881
-0.05879082,0.10409180000000001,0.03183137
-0.07450399,0.04350223,0.05566262
-0.07493216,0.03117698,0.03565769
-0.05622007,0.03578207,-0.02498225
-0.03724554,-0.00039292589999999995,-0.01415757
0.001675791,-0.03301661,-0.01623541
0.02608712,-0.06337258,-0.01537823
0.04121092,-0.05470658,-0.03508804
0.02591136,-0.06372648,0.008673287
0.00037208330000000004,-0.04502839,-0.001971671
0.003444092,-0.03180511,0.006147868000000001
-0.01334631,-0.01804331,0.03294302
-0.003105896,0.02153925,-0.02881731
-0.02587447,-0.062464099999999995,0.04527049
-0.01203521,-0.02797462,0.03247596
0.02340752,-0.0134636,0.0034262190000000003
0.02460896,-0.0597689,0.009558756
-0.01163251,-0.03061627,0.02105079
-0.04959179,-0.02998237,0.02726115
-0.003757908,-0.04498342,0.00821257
-0.005849229,-0.03236766,0.009308903
-0.00617229,-0.006051401,0.01453853
-0.0163428,-0.001102214,0.04224694
0.02345171,0.05028996,0.003291016
0.03940754,0.02684706,0.006034477
0.01331384,-0.009800669,-0.02157592
-0.01653849,-0.04416131,-0.02507127
0.005282114,-0.04820956,-0.03406347
-0.01939072,-0.01982073,0.005168815
-0.01585661,0.01751834,0.0019473029999999998
-0.01888436,0.03735829,0.03188178
-0.009282839000000001,0.002469435,-0.007570146
0.01258586,-0.129693,-0.02159891
0.03054502,-0.04365975,-0.01845473
0.07789138,0.02187545,0.0004991107
0.1076919,0.07549021,0.03917067
0.12028019999999999,-0.00046674910000000006,-0.06241159
-0.004051127,0.1335369,-0.008397017
0.01925845,0.1510854,-0.0006561558999999999
0.08318071,0.22393320000000003,-0.01238157
0.08024056,0.22435120000000003,0.009517154
0.0430684,0.1260147,-0.02602823
0.03386005,0.05284019,-0.04889633
0.01304914,0.08505189,-0.09334701
-0.01004604,-0.09024352,-0.08696052
0.01972841,-0.07219683,-0.1404849
0.02138152,-0.1206382,-0.10375060000000001
-0.01969482,-0.1256129,-0.06207164
-0.017460800000000002,-0.14532579999999998,-0.08749609
-0.03479601,-0.12371220000000001,-0.01614195
-0.05613144,-0.10645619999999999,0.03177468
-0.04539494,0.09726586,0.008742576
0.01703529,-0.1539083,0.08548282
-0.01958488,-0.21732529999999997,-0.001058063
-0.06422974,-0.12070230000000001,0.04152728
0.01738024,-0.001371727,0.05229568
-0.01170526,0.08099914,0.167429
0.03937244,0.256249,0.137933
-0.005502127,0.11721500000000001,0.16852679999999998
0.01077877,-0.07218759,0.03672602
0.01520363,-0.1474967,-0.04654121
-0.0013278979999999999,-0.15298720000000002,-0.04324171
-0.02829458,-0.09609114,-0.04832529
0.03772173,-0.02629674,-0.09871685
0.003402995,-0.03597322,-0.02704557
-0.02201112,-0.04115556,-0.01665295
-0.05303692,-0.1111535,-0.03845363
-0.07413423,-0.1234019,-0.03948021
-0.07726687,-0.06037471,-0.04041625
-0.08459447,0.094139,0.0353438
-0.11232439999999999,0.11146860000000001,0.05198035
-0.02461516,0.01286364,-0.02285558
-0.03912483,0.007333291,-0.008410569
-0.005191156,0.04828932,0.01017118
-0.02279112,0.03241253,-0.02649787
0.025634699999999996,0.009010084,0.003362584
-0.004664233,-0.02327773,0.05253526
0.04991766,-0.02470864,0.04477806
0.03165126,-0.0361838,0.06832585
-0.01226063,-0.1310781,0.07990764
-0.01950925,-0.0957084,0.04900287
0.0241565,0.03345625,-0.02265368
0.04613671,-0.02793854,-0.001184113
0.06141081,-0.03540827,-0.005421235999999999
0.01468796,-0.03816996,0.0206113
-0.001959699,-0.09346551,-0.02749508
-0.04070099,0.001448713,-0.01969411
-0.06668651,0.07304624,-0.008001046
-0.046430599999999995,-0.0232838,0.02047489
-0.10980450000000001,-0.01522261,0.02469945
-0.0795249,-0.004453997,-0.001067124
-0.05308088,-0.0116698,-0.02087605
-0.01776931,-0.002413695,-0.0391784
0.006922271,0.06924593,-0.03786936
0.04253426,0.08654027,-0.04434039
0.03340475,0.06221479,-0.03975915
-0.005569762,0.06191354,-0.02495025
-0.02381506,-0.04520256,0.02966021
0.005349942,-0.0410853,-0.01085574
-0.02737052,-0.04348548,0.03062909
0.01927849,-0.04619562,-0.007343844
0.04858479,-0.01859259,0.05074862
0.01061741,-0.08805811,0.10666989999999998
0.07653857,-0.06604871,0.01435881
0.06092721,-0.04214101,0.03784758
0.07552636,0.0020660270000000002,0.03235034
0.09645918,0.02015145,0.0017518660000000001
0.05602448,-0.01091712,0.03750671
0.0568399,-0.04517812,0.05071562
-0.0074729209999999996,-0.01013861,0.03122681
0.02399128,-0.04789862,-0.03725465
-0.05350856,-0.03341934,0.04056977
-0.09919371,-0.0252586,0.03679094
-0.06782369,-0.00107386,0.01814359
0.09045842,-0.03244651,-0.101906
0.1351862,-0.02408003,-0.11426960000000001
0.1372266,0.02604157,-0.12328360000000001
0.1211945,0.03072482,-0.02550856
0.1333556,-0.01790791,-0.04337479
0.1051298,-0.03417059,-0.01654987
0.0774589,-0.0045564920000000005,0.003094345
0.06228636,0.03256474,0.04310612
0.03977969,-0.04471017,0.0262185
-0.007501268,-0.04511402,-0.01789881
-0.01623692,-0.06248959999999999,-0.02635059
-0.05912064,-0.05735125,-0.02473741
-0.03427715,0.02200982,-0.02005835
-0.07883805,0.08168187,-0.003131676
-0.03493834,0.03550249,0.0002889819
-0.05584277,0.003035158,0.00389093
0.0064227730000000005,0.008041051,-0.06561765
-0.03723865,-0.08347031,-0.02241689
-0.06083827,-0.05338826,-0.01255109
-0.02913156,0.04257358,-0.01761428
-0.02683025,0.04166653,-0.03189845
0.016155700000000002,-0.04612158,-0.04576851
-0.04681478,-0.003092907,-0.007178075999999999
-0.02073667,-0.02297281,0.02240072
-0.0023690539999999998,0.006823294000000001,-0.04948288
0.01073639,-0.05811013,-0.02915569
-0.01572038,-0.03802747,-0.02878489
0.001236152,-0.0332606,-0.02891131
0.023833,-0.02762544,-0.03371517
-0.01011008,-0.06229095,-0.01278253
-0.05225509999999999,-0.03602669,-0.0625336
-0.01689766,0.01067025,-0.05991175
-0.053104399999999996,0.08561437,0.02875461
-0.05229958,0.11876279999999999,0.007806306999999999
-0.04559147,0.04270054,0.03553503
-0.05982042,-0.02900857,0.04541511
-0.03187522,0.01709204,0.02850033
-0.08205519,-0.006550612,0.08238003
-0.0298134,-0.03444452,0.054044100000000005
-0.04207304,-0.02894804,0.06378171
0.02910453,-0.03077866,0.002878338
0.01950185,-0.03422786,0.03532579
0.05298013,-0.00482553,-0.002282111
0.02167276,-0.04216711,0.06845568
0.01499126,-0.03936141,0.09079951
0.03586686,-0.04503018,0.05869331
0.06170065,-0.06984536,0.03221513
0.01817957,-0.06704121,0.0451268
0.002587292,-0.03612072,0.05480242
0.004026856,-0.02202372,0.04010596
0.02256784,0.04218218,0.02266169
0.05708330000000001,-0.05601437,0.03834366
0.03758629,-0.05013831,0.009370132
0.04684892,-0.0310207,0.005089607
0.04650997,-0.05545948,-0.01282708
-0.0368227,0.04843013,-0.02398634
0.02776027,-0.0001613386,-0.01187085
0.06034299,0.04300005,0.0008250941
0.05772348,0.07477681,-0.00778657
0.07029365,-0.0027180240000000003,-0.01381323
0.00245263,0.005881157,-0.01329036
0.006804734000000001,-0.01379386,-0.07980291
-0.02405724,-0.01945047,-0.08641294
-0.003010536,-0.00435083,-0.05162786
-0.05732835,0.01213046,-0.02994106
-0.04639031,0.01550515,-0.02367578
-0.04003393,-0.058440599999999995,0.00824601
-0.06044013,0.01429759,-0.007911352
-0.04748596,-0.0073266569999999994,-0.03118958
-0.05490711,-0.007482015,-0.01259586
-0.047139999999999994,0.03028899,-0.03285429
-0.07289067,0.0007489659,0.04418179
-0.03184556,0.001024863,-0.0004591411
-0.01495472,-0.0695776,0.01683673
0.01956308,-0.03468257,-0.01135944
0.04818825,-0.03394771,0.01783304
0.009611589,-0.006938282,0.01015501
0.06533676,-0.0558211,0.05673892
0.05361753,0.01325433,0.04267665
0.08026595,0.0301954,0.01178167
0.09673516,0.008943602,-0.004936795999999999
0.01131767,0.07630063,0.01403751
0.05837202,0.05355126,-0.04996702
0.03108971,0.02920032,-0.04524206
0.03786565,0.06408293,-0.06472708
0.04126033,0.01365344,-0.10000830000000001
-0.04005592,0.02514942,0.0039705109999999995
-0.015984799999999997,0.0974234,-0.04926566
-0.06182485,0.04280504,0.01499122
-0.01626644,0.02058788,-0.02650238
-0.07277837,-0.01066477,0.011772399999999999
-0.009544705,-0.12264669999999998,0.003837418
0.002706954,-0.07266708,-0.04275059
-0.04006948,-0.02103621,0.01294128
-0.05303735,-0.02708489,0.01473947
-0.03656693,-0.05167386,0.008491859000000001
-0.04299692,-0.03443909,0.01933184
-0.04492946,0.01713536,0.07018664
-0.01473121,0.0363211,0.08397915
-0.04559963,0.02194946,0.0009502321000000001
-0.04610293,-0.0932392,0.01863224
-0.03645894,-0.06291603,0.02876971
-0.02455194,-0.01697509,-0.02395457
0.004661791,-0.05789574,-0.015443700000000001
-0.02595354,0.01385616,-0.00557315
0.01279583,0.020638999999999998,0.002194923
0.03708893,-0.03877294,0.00368349
-0.01820435,-0.01737729,0.009508266999999999
0.02256157,0.02235569,-0.03255574
-0.0002172962,0.0479437,-0.04476612
0.01041762,-0.05117633,-0.01828514
0.02616593,-0.05482936,0.0799088
0.02610419,-0.05803569,-0.04879884
0.02111939,-0.09103571,-0.04725563
-0.02511393,-0.06651281,0.001775378
-0.03165734,-0.01015982,0.03700945
0.004175361,0.03018957,0.06709646
0.02272939,-0.01088215,0.02174082
-0.0005227514,-0.08786818,0.0771455
0.03233353,-0.06145798,0.01184308
-0.02430004,-0.09000449,0.02561247
0.005080053,-0.03570684,0.01386232
0.06382773,0.02771636,-0.03553582
-0.01148524,0.04356443,0.009090069000000001
0.005735648,0.0347206,-0.009042928
-0.01538626,0.05105344,0.04072926
-0.01428203,-0.03742675,-0.0006964272
0.0395212,0.04205269,-0.03863662
-0.005685928000000001,0.08166126,0.04014699
-0.01849606,0.02433701,0.01447184
-0.004272467,0.01031448,-0.01754643
-0.02956357,-0.04535484,-0.05627616
-0.03547183,-0.03046587,-0.04760942
-0.03911871,-0.04814981,-0.02379855
-0.03761103,-0.10498579999999999,-0.03652642
0.0011414860000000001,-0.11912060000000001,-0.023349400000000003
-0.04249718,-0.01967947,0.004983064000000001
-0.025656400000000003,0.08722462,0.007730557
-0.03153314,0.01576588,0.055065199999999995
-0.00591431,-0.03817344,-0.03536868
0.004606086,-0.06322585,0.01447523
0.001190936,0.01432773,0.023478400000000003
-0.02498795,-0.02790638,-0.004720309000000001
-0.01389049,-0.03062965,-0.007675995
-0.01860784,-0.01805515,0.00811885
-0.06666136,0.04664941,-0.006576203
-0.05242962,0.09204215,-0.02867381
-0.06138301,0.08020821,-0.007398339
-0.03121281,0.02132277,-0.011376299999999999
-0.07848096,-0.04476605,0.002566509
-0.04824527,-0.01335966,-0.01371065
-0.05262738,0.03431514,0.006220695
-0.02563732,-0.009791832,0.037759100000000004
-0.0029980999999999996,-0.0023484120000000002,0.0379884
-0.04863881,0.01519485,0.08829831
0.05569971,-0.01905327,0.01807807
0.03617595,-0.04399271,0.02817211
0.04883584,-0.05435445,-0.01343688
0.05781011,-0.04865184,-0.01409509
0.06047224,-0.02995808,0.007119561
0.04565703,-0.04042502,0.01876904
0.03654686,-0.0275839,0.01809851
0.07125671,-0.054178199999999996,-0.004233357
0.05059005,-0.05949362,0.02075612
0.02939376,-0.033095,0.02621674
0.07643088,0.007217174,-0.0148975
0.01568176,-0.06353884,0.054644500000000006
0.05805790000000001,-0.03278079,0.005076906
0.0026867859999999996,0.000678733,0.03241032
0.02667739,-0.06466693,0.02811546
-0.002620528,-0.02395642,0.02051645
0.01082681,-0.04144892,0.009711761
0.02720557,0.006506919,-0.01866012
-0.005957797,0.02013238,0.002331432
-0.02499612,-0.02200464,-0.002569497
-0.004500753,-0.051106099999999995,-0.02269206
-0.002386525,0.01102953,-0.05574814
-0.002220802,-0.01783073,-0.04931021
-0.03708786,0.0471356,-0.004010612
0.01569157,0.05793518,-0.01612546
0.02209103,0.05174922,-0.0289973
0.02449735,-0.0035715029999999997,-0.04395637
-0.01982076,-0.02406055,0.0001218822
-0.01907405,0.02945282,0.005974054
-0.007851289000000001,0.03978487,0.01743913
-0.015311700000000001,-0.01423646,0.008960998000000001
-0.04865294,0.003023773,-0.0009684655999999999
-0.0465725,-0.04220805,-0.05218782
-0.05538047,-0.08601619,-0.01119614
-0.04444504,-0.04974967,0.02070064
-0.0441699,-0.04942458,0.04487602
0.0042728029999999995,-0.06225452,0.03509153
0.05734529,-0.01603814,-0.0278616
0.02822187,-0.01022075,-0.0005875098999999999
0.02234113,-0.05736347,-0.005360266999999999
0.01770429,0.01695054,0.0191914
0.05585526,0.09466448,-0.01045368
0.06367161,0.02201602,0.02480233
0.01900715,0.02601367,0.001223471
0.04145276,-0.002036683,-0.0002479218
0.03834295,-0.04226780000000001,0.0055430309999999995
0.03678926,-0.02744984,0.005075252
0.04878264,-0.07890122,-0.003071843
-0.032134699999999995,-0.01478488,0.05744474
0.03375212,0.01008859,0.02053336
0.006219366,0.03450236,0.003368131
0.05682804,0.003206752,-0.009142591
0.004026221,-0.01487956,0.02062208
0.0067043580000000005,-0.02562963,0.006702253000000001
-0.03056354,0.0214646,0.03811781
-0.04418328,0.01622785,0.09228848
-0.02916242,-0.0482783,0.05843293
-0.05173873,-0.1357808,0.05324236
-0.06826913,-0.10110119999999999,0.02232608
-0.03221062,-0.07461882,-0.01234563
-0.06127823,0.03547765,0.03735684
-0.07157667,0.06114528,0.03504938
-0.05611653,0.01574276,0.01030338
-0.06493855,0.02313005,0.0046407259999999995
-0.03155723,-0.03583117,-0.01990301
0.002306677,-0.00109628,-0.06589605
-0.04319394,0.0001346763,-0.006563819
-0.02544843,0.01744344,-0.006645979000000001
0.009526185,-0.05100736,-0.03327608
-0.01588138,-0.03023135,0.001973846
0.0429071,-0.01443867,-0.07786030000000001
-0.02734929,0.06762731,-0.03670063
0.01928953,0.00197012,-0.03266718
0.01088103,-0.03728471,-0.007197666
-0.03430464,-0.02998808,0.01616652
0.01589946,-0.004959267,-0.05065883
0.01340386,-0.01833702,-0.01998189
0.002121022,-0.005543208000000001,0.02529496
-0.01191794,0.03663196,0.05307065
0.052078,0.02051627,0.007263657
0.0238544,-0.05792959999999999,0.01654436
0.01764269,-0.04476816,0.01312375
0.01601594,-0.07889393,-0.0009884200999999999
0.02953567,-0.09814939,-0.02372041
0.03202709,-0.07293029,-0.05598662
-0.02700053,0.01357401,0.00207829
0.0105685,-0.03409418,0.009472938
0.02466403,0.02990828,-0.01817345
-0.004242465,0.008159168,0.03088921
-0.03356046,0.007702393,0.01725324
-0.003155706,0.02902057,-0.03393874
0.03009398,0.03278652,-0.07060347
-0.01354999,-0.01114386,-0.005392474
0.02244778,-0.015610299999999999,-0.01090122
0.01265079,0.02867861,-0.001875417
-0.01503973,-0.01940737,0.05072855
0.007493456,0.007784659,0.007112032
-0.04565106,0.02732094,0.04848955
-0.03086833,0.004936236,0.03185703
0.001080249,-0.01562091,0.03362935
-0.002618574,-0.05663271,0.03468068
-0.01164285,-0.03560282,0.05937681
0.07380249,0.0071582090000000004,-0.06412928
0.01972323,-0.03534457,0.04731158
0.03479301,0.03186134,0.01687683
-0.004756741,-0.03121367,0.06933133
0.004535187,-0.01928877,0.01767028
0.009011134,-0.0600741,-0.01620169
-0.01818696,-0.13602060000000002,-0.01266291
-0.02546142,-0.1139481,-0.02734181
-0.003391257,-0.007827561,-0.06391945
-0.02885492,0.09819299999999999,-0.03054727
-0.0174372,0.02834679,0.02226316
-0.04962966,0.01130915,-0.01811711
-0.02197512,-0.05970906,-0.06090156
-0.009154173,-0.06079614,-0.03790335
-0.00737383,0.01270409,-0.04908442
0.01017039,0.01875468,-0.08488798
-0.02477254,0.08153956,-0.07677817
-0.008396359,0.03460211,-0.05969603
0.003136452,0.0008901581,-0.1012154
-0.02756108,-0.009378113,-0.07060167
0.009357614,0.01151226,-0.06765258
-0.02612026,0.04117936,-0.05477215
0.002249364,-0.0020384120000000003,-0.02228487
-0.03675129,0.01670558,0.02338429
0.03151173,-0.09391295,-0.01980443
0.01930171,-0.08682128,-0.02846325
0.05062514,0.03024026,-0.0007218104
0.01215405,0.03579424,-0.0021197860000000002
0.08887906,-0.15707520000000003,-0.0523424
0.07046539,-0.1981895,-0.08212772
-0.01129526,0.1202857,-0.01021627
0.04558077,0.1930152,0.0008440409
0.05028757,0.14005689999999998,0.05200978
0.02720159,-0.09954537,0.02095422
-0.01349001,0.06030086,0.005552196999999999
0.008467822,0.03732166,0.03497218
-0.01809726,-0.05378008,0.07366673
-0.0006111367,-0.05103023,0.01983576
-0.01414198,-0.1052762,0.01381208
0.006612558,-0.07912774,0.0137714
0.02041652,-0.1003227,-0.011219400000000001
0.01710192,-0.19879370000000002,0.05701043
0.009798707,0.01949362,0.05216058
0.002074454,0.08421419999999999,0.11084719999999999
0.04868864,0.09262015,0.1150776
0.04685099,-0.01150554,0.07008095
0.004776000999999999,-0.03168175,0.0769553
0.02050126,-0.10263589999999999,0.05570552
-0.007684720999999999,-0.05935144,0.07410763
0.004564689,0.07548146,0.05606546
0.006544353,-0.03923236,0.05204867
-0.05164506,0.01438943,0.007710130999999999
-0.01048985,0.01038264,-0.006660747
-0.004594109,-0.01369591,-0.01665934
0.004147540999999999,-0.08116881,-0.1029323
-0.02560532,0.06954198,-0.01706938
-0.06699812,0.07996336,0.01363125
-0.00436365,0.04830343,-0.04144446
-0.02985634,0.05330940000000001,-0.03408611
-0.06516866,0.04068786,-0.01372014
-0.05074759,-0.07125587,0.005890502
-0.04204153,-0.06627804,0.01710804
-0.03857166,0.005347613,0.01625535
-0.07943659,-0.09490187,0.05397836
-0.07169534,-0.11349429999999999,0.028426
-0.06806996,-0.04067017,0.0051339490000000005
-0.07937498,-0.04476254,0.05770488
-0.06821255,-0.057028499999999996,0.03862897
-0.02206805,-0.05436491,-0.02329915
-0.05599092,-0.04000984,0.02227351
-0.04722355,0.04020176,0.006724626
0.002686855,-0.002734065,-0.02311277
0.008093325,-0.02380316,-0.04535
-0.002801078,-0.01755703,-0.03354333
-0.01656895,0.03373623,0.0001753634
-0.005562371,0.01512709,-0.01836712
-0.02708449,0.01301764,-0.0406858
0.01775018,0.0030861120000000002,-0.05864036
0.004007149000000001,0.009534115,-0.0801665
0.02368391,0.05596736,0.0002141418
0.05552116,0.04163707,-0.03788889
0.04681149,0.05946283,-0.01482939
0.05944427,0.02134111,-0.01980148
0.06552341,0.003508689,0.01178316
0.0773706,-0.03768992,0.01635809
0.04680124,-0.06142915,0.0545755
0.081117,-0.1076183,0.02345383
0.02677265,-0.026073400000000004,0.065983
0.06275576,-0.03779778,0.06430793
0.04983006,-0.06179518,0.12005550000000001
0.05704319,-0.05546551,0.08559071
0.07795316,-0.010798700000000001,0.05197776
0.05146774,-0.01571988,0.05159144
0.02573063,-0.04360415,0.0303514
-0.01729913,-0.04983031,0.02457232
0.01015026,-0.04461586,0.01422325
-0.01071344,-0.008461986,0.0002962155
-0.02257947,0.03114592,-0.01009831
-0.01128583,0.005430335,-0.03404791
-0.01448741,0.002949201,-0.06384073
-0.03723443,0.04888279,-0.07078344
-0.04074895,-0.02210093,-0.07433456
-0.0031547359999999996,0.05190536,-0.09194993
-0.01808888,0.03880519,-0.0710267
0.009834655999999999,-0.03393414,-0.03954942
0.02770237,0.04188606,-0.08621287
-0.03332638,0.07152717,-0.04174785
-0.01238215,0.05721228,-0.05174319
-0.01777985,0.01809768,-0.02194572
-0.02154052,-0.01752286,-0.01487051
0.01193299,0.04790707,-0.01660957
-0.001242764,0.006574405,0.01963667
0.04147071,-0.00892061,0.002223719
0.03831304,-0.09059509,0.002069779
0.01231653,-0.07442906,0.005590633
-0.002991867,-0.05299308,0.01968567
0.04669295,-0.0385609,-0.005401446999999999
0.0060802059999999995,-0.01514382,0.035147000000000005
0.008716205,-0.007062074000000001,0.02564981
0.02718339,-0.008630564,0.002529704
-0.006192498,0.02362644,0.004593236
-0.01836483,-0.04074495,0.003365332
-0.02645385,-0.0325082,-0.02152418
-0.0378115,-0.03535955,0.01641817
0.001361545,0.01722461,-0.01015839
0.005720406999999999,-0.01097441,-0.01506366
-0.01372699,-0.03466279,0.0192773
-0.02221604,0.01682469,0.002840009
-0.0038701290000000004,0.001443366,0.01011893
-0.009811738,-0.02832261,0.01131056
-0.00199315,-0.009191644,0.02490505
0.008188188,-0.01173683,0.01466118
0.0076797919999999995,-0.02776779,0.02876512
