Acc_x,Acc_y,Acc_z
0.06391131,-0.04167064,0.055184199999999996
0.01357543,0.0254898,-0.06410797
0.0309143,-0.02675283,-0.0638048
0.01520002,0.03045036,-0.013852200000000002
-0.03208045,0.04226105,-0.01768047
0.0004084469,0.008881186999999999,-0.01339121
-0.01449063,0.0302509,-0.02606418
-0.02755113,-0.00517315,-0.027269599999999998
0.0087667,0.001183163,-0.07166216
-0.01136917,-0.04756256,-0.02987367
0.02369599,-0.01302469,-0.03076445
-0.00521641,0.01717618,-0.006541348000000001
0.04253893,-0.05720651,-0.00961831
-0.005155437,-0.03623232,-0.01897921
0.0036688690000000004,0.02134573,-0.003050433
0.01419061,-0.008192264,0.03258342
0.03121625,0.01436082,-0.003674229
-0.0056751119999999995,0.01975917,0.009170368
0.03058287,0.005281482,-0.01376762
-0.002759018,0.007712256,-0.021017700000000004
-0.05150544,0.03322508,0.02989049
-0.03024971,-7.338822e-05,-0.008893145
-0.007557306999999999,0.04615442,-0.03301483
-0.01767519,0.01926098,-0.006282743
-0.0278472,0.02866967,0.02569033
0.003841208,0.002126275,-0.008674169
0.05318994,0.03239796,-0.0431289
0.07694859,0.03990315,-0.009329669
0.03468628,-0.02865397,0.03585605
-0.0020837729999999997,-0.02753146,0.03698064
-0.03335876,0.0016252920000000002,0.007231141999999999
-0.01217815,-0.049663,0.03864985
-0.01050069,-0.1130154,0.02713237
-0.03779469,-0.1613446,0.002196567
-0.04217679,-0.04773325,0.02214375
-0.02050572,0.02752863,0.05736034
-0.0214538,-0.006546538,0.06538413
-0.001343286,-0.009840082,0.03716248
0.0007535991999999999,-0.06012703,0.01276361
0.01790257,-0.06633763,-0.02929061
-0.008437676,-0.06376521,0.01394732
-0.04681775,0.009305411999999999,0.04866292
0.01171791,0.04912876,0.03696503
0.0007162838999999999,-0.06984191,0.08467133
-0.01291584,0.01980023,-0.03641405
-0.03832031,-0.07163165,0.03674034
0.04066152,-0.05603128,-0.05752248
-0.002518919,0.07300445,-0.02031273
0.02508436,0.1226009,-0.05507662
-0.007830277,0.08075915,-0.02980076
-0.004958753,-0.03501268,-0.0357559
-0.01981499,0.005921924,-0.04730341
0.01803389,-0.02825499,-0.05689658
-0.03607167,-0.005463,0.0014352520000000001
0.003987157,-0.0004980228,-0.01858968
-0.002795835,0.04291594,-0.03011347
0.005394384,0.03612804,-0.02597011
0.009025364000000001,-0.001503991,-0.02682273
-0.006108962,0.005651715999999999,0.0377086
0.006748171,-0.001206975,-0.03274453
0.02439994,-0.0797306,0.01045281
-0.009921919,-0.002077799,-0.006987815
-0.04311197,0.02627907,0.0031443609999999996
-0.01571576,-0.02850968,0.03216498
-0.02500197,-0.05315008,0.005788388
-0.0071445530000000005,-0.04358561,-0.03181994
-0.01017494,-0.04618169999999999,0.002772372
0.01844218,0.04483171,0.02059486
0.05776783,-0.006066541999999999,0.01034907
0.01245588,-0.045609199999999996,0.04796536
0.01746563,-0.0853016,-0.009769332
0.07975165,-0.058639,0.003791492
0.02065619,-0.004697279,0.0684595
0.05955299,0.04472321,0.05196713
-0.008459159,0.0765409,0.04664775
0.02677451,0.01224689,0.01907059
0.01398126,0.01715511,0.05716569999999999
0.03531113,0.03012833,0.04227868
0.05102616,0.03038904,0.04077964
-0.04073508,0.07209127,0.06085775
0.01414748,-0.06498385,0.001791223
-0.0168749,-0.04027288,-0.05056898
-0.05808576,-0.0004828125,-0.01800738
-0.04196484,0.07389224,-0.06860192
-0.06241344,0.08343775,-0.03941029
-0.005263957,0.04071501,0.0009415736
-0.0063041569999999995,0.06723312,-0.01165408
-0.01342004,-0.0321558,0.006796593
0.003930338,-0.05271867,-0.026695599999999996
-0.000841748,-0.044176099999999996,-0.06766145
0.0005956208,-0.11833959999999999,-0.01919449
0.006993521,-0.01784374,-0.07046837
0.04526222,-0.02179059,-0.07644778
0.01319549,-0.1013081,-0.02613281
0.002117511,-0.08689442,-0.05802995
0.04396347,-0.07234031,-0.05666801
0.037011800000000004,0.00751172,-0.05020427
-0.02071991,0.02583109,0.04391642
-0.01116359,-0.04668832,-0.02413235
0.00143985,-0.03952723,-0.02510216
-0.03697088,0.04530399,0.06569354
0.007043336,-0.03719465,0.05404045
0.06919162,-0.1033153,-0.03326934
0.01840839,-0.1641241,0.004936081
0.02016118,0.044969800000000004,-0.0072451830000000005
0.0664253,0.30061350000000003,0.05742671
0.03367169,0.2825809,0.15812220000000002
-0.001464971,-0.12311980000000002,-0.02428757
0.006079706999999999,-0.09831081,-0.08169301
-0.04809355,-0.08713993,-0.03600047
-0.01436476,-0.02227208,-0.05250967
-0.06153637,-0.02937332,-0.006516155
-0.03892989,-0.05094109,-0.05192899
-0.05711681,-0.1137213,-0.02469281
-0.03655138,-0.1487943,-0.02649876
0.001087748,-0.1764491,-0.049839499999999995
-0.07741039,-0.02166416,0.01546183
-0.06351086,-0.06556218,0.04366548
-0.04126501,0.06023298,0.02903997
-0.03472953,0.03130492,0.01653273
-0.04254649,0.01797421,0.01605368
-0.03633229,0.06543802,0.001913931
-0.02470195,0.07170614,-0.0029943509999999997
-0.02880472,-0.01491884,0.0354214
0.04317085,0.008892979,-0.04825591
0.01599841,-0.06243786,-0.02535705
-0.005934541,-0.1848346,-0.02560545
-0.01400854,-0.10068780000000001,0.03050055
-0.0121417,0.04011655,0.02820566
0.02654805,-0.004117442,0.0008725096
0.04270619999999999,0.03467497,-0.0239449
-0.003162872,0.11099,0.09847743
-0.0115241,0.10582860000000001,0.07856751
0.06385264,0.01143977,0.01841028
0.04454868,0.0007811113999999999,0.02923678
0.04346714,0.03623812,-0.007041721
-0.01187709,-0.05567686,0.06113203
0.03821568,-0.07234878,0.01770448
0.01872465,-0.03822412,0.0167118
0.02923243,-0.1112487,0.02482485
0.02462122,-0.10966400000000001,0.01668145
0.04163969,-0.07148974,-0.02147598
0.04591863,-0.04526649,-0.01568628
0.07005341,-0.02026265,-0.02722896
0.06633249,-0.02146043,-0.02979146
0.05506707,-0.02806132,-0.03943305
0.0003818143,-0.04461128,-0.04000153
-0.01194256,-0.05175661,-0.04355234
0.002260698,-0.00686316,-0.06367764
-0.02949336,0.005732938000000001,-0.007889651
0.01654754,0.08320098,-0.04899762
0.002592647,-0.004686575,-0.03991531
0.03436233,-0.06755927,-0.06425717
-0.02144716,-0.04819989,-0.04294489
-0.01566059,0.02507675,-0.02498735
0.02184936,-0.02856561,-0.05317828
0.01861395,-0.02298011,-0.03368608
-0.04118297,0.01352118,0.009477051
-0.01282005,0.0269491,0.02780096
0.04123591,-0.007156914,-0.01314938
0.012146700000000002,-0.01411545,-0.01601311
0.0320572,-0.0337052,-0.02625253
-0.006558988000000001,-0.008684758,0.06655465
0.01624748,-5.542486999999999e-05,0.06635147
0.03723758,-0.04328117,0.06254777
0.02606052,-0.02661083,0.08535855
0.01900622,-0.008798175,0.02665904
0.03414706,-0.02708005,0.01704369
0.05449856,-0.04612827,-0.03186167
0.03611051,-0.02997367,0.009487521
0.0243892,-0.004019761,-0.01163695
0.02590048,-0.007435713,-0.03250673
-0.003144006,-0.01636002,0.02850097
-0.0167794,-0.03163552,0.03144299
-0.03361193,-0.01776572,0.05348111
0.023712900000000002,0.0036094559999999996,-0.04491406
0.007252615,0.01769195,-0.02666394
0.02274439,0.01356099,-0.04050963
0.02875615,0.03553833,-0.0412475
0.01492191,0.006925374000000001,0.03160883
0.02734972,0.01656407,-0.02147029
0.0143341,-0.01395614,-0.03015374
0.02210473,0.02196735,-0.04709699
0.02036501,-0.01682266,-0.04182017
0.02270648,0.02055109,-0.06494217
0.01002096,0.0026872940000000002,-0.07156837
-0.02981442,0.01104552,-0.03922169
-0.0009238228999999999,0.03485827,0.009615277
-0.01128463,-0.006342832,0.01293564
-0.01417409,-0.0425924,-0.01310959
-0.01622765,-0.06729041,0.006713059
0.004324291,-0.0453274,0.001542948
-0.004170266,-0.008478618,-0.03071256
0.03310184,-0.01278352,-0.05542725
0.01681527,0.009714182,-0.07522909
-0.03522672,0.02021664,0.02063539
-0.03056204,0.05152989,-0.01880858
-0.038837,-0.02044734,0.006046288
-0.029954900000000003,0.007776091999999999,0.004906796
-0.01974024,0.01276626,0.03459258
-0.02795394,0.03688051,0.01019615
0.0060744430000000006,0.00149274,0.02929518
0.03966516,-0.007311828,-0.06728035
-0.03242227,0.0002517756,0.03817543
-0.04204661,0.00949527,0.044818000000000004
-0.02035782,-0.007829789,0.03225936
0.006885626,0.001511384,-0.007613915
-0.02915712,0.0028522779999999998,0.007270553000000001
-0.04071366,0.05513348,-0.009327848
-0.0009132408999999999,0.005881595,-0.01348731
-0.01863663,0.001334124,0.007539861
-0.0294962,0.004870711,0.02239907
-0.05203546,0.0308755,0.03143925
-0.02398888,-0.03456733,0.0027968690000000004
0.01820967,-0.0940409,-0.007423215
-0.0027139559999999996,-0.03552509,-0.02306869
-0.005616306999999999,0.03133385,-0.004944235
0.002963918,-0.009997994,0.004644114
0.05674054,-0.04491299,-0.02910796
0.03984055,-0.008448983,-0.001191746
-0.002269367,0.0395612,0.01281831
-0.02135217,-0.02013536,0.03029451
-0.03008357,-0.02844456,0.002219619
-0.0103102,-0.03921058,0.02536432
-0.02233702,0.05223841,0.00789153
0.02048624,-0.04010522,-0.01897536
0.009393091,0.008598529,-0.02092662
-0.03736122,0.006619118,0.009185695
-0.03898109,-0.01144502,0.0006846432
-0.02790853,0.002185087,-0.01017076
-0.04888438,0.010020000000000001,0.05521415
-0.02813032,0.01497238,-0.008866861
0.02315799,0.02238877,-0.03336359999999999
-0.0013635,0.03624969,0.004372085
0.01156653,0.01593769,0.02113453
0.03271898,-0.00388357,0.01796088
0.004579892,0.01675758,0.01619142
0.0571415,-0.0021316770000000002,0.01194963
0.01197491,0.02427717,0.017214
0.03617628,0.01737257,0.04088809
-0.001274701,-0.044844800000000004,0.07276384
0.01984392,-0.02581134,0.03807808
0.02706176,-0.04611075,0.05497957
-0.006824158,-0.03510659,-0.08080902
0.007539794,-0.07812282,-0.1506399
0.03018725,0.1303021,0.05158954
0.013405799999999999,-0.04944978,0.06602712
0.005762311,-0.1872073,-0.04780095
-0.001369819,-0.15703770000000003,-0.06784718
-0.0035753679999999998,-0.05888937,-0.05035708
-0.05797166,0.02084736,-0.02695104
-0.04266119,0.04530184,0.01147669
-0.004697918,0.07535382,0.00215528
-0.01887505,0.04233351,-0.02818453
-0.02716906,0.0171774,-0.0700528
-0.03452713,0.02659526,-0.05109398
-0.01095031,0.0948372,-0.04740151
0.01311679,0.1076837,-0.02398531
-0.01461717,0.08467962,0.02429744
-0.00596263,-0.0022210629999999997,-0.03637619
0.0019338860000000001,0.005616869,-0.04922039
-0.04351567,0.02376967,0.009388477
-0.016591599999999998,0.002938645,0.03980678
0.001307953,-0.04887492,0.04783171
-0.04211815,-0.07353689,0.04316143
-0.00555608,-0.11520050000000001,-0.02480727
0.02725504,-0.004308149,-0.04858178
0.004948249,0.12989030000000001,0.04069598
0.03561922,0.20653890000000003,0.008052193000000001
0.01526565,-0.03847414,0.013094899999999998
-0.06203287,-0.06001919,-0.05678529
-0.04148287,-0.08519231,-0.08402985
0.007173891999999999,-0.0181317,-0.08105969
-0.0005085319,-0.01531288,-0.09128334
-0.008967722,-0.02636663,-0.02141484
0.009971148,0.03411181,-0.03531858
-0.02690605,0.05631554,-0.004612452
0.01009513,-0.03383113,-0.004368312
-0.008756758,-0.002478,0.006970215
0.04204676,0.04517686,-0.0009143259
0.07743829,0.02002383,-0.01003223
0.03135618,0.03553867,-0.02997688
0.03808457,0.055507900000000006,-0.0177137
0.02662375,0.05010902,0.06363261
0.05765645,0.0789097,-0.008447584000000001
0.0308199,-0.03979433,0.01473845
0.01555227,-0.06454478,0.03039417
0.03443514,0.02684051,0.01672152
0.002856664,-0.03393045,0.10287830000000002
0.04947839,-0.06677312,0.01711161
0.02697398,-0.06287166,0.05555822
0.01338227,-0.12456660000000001,0.01594758
-0.02340231,-0.0558168,0.04390896
0.00039849620000000004,-0.03215407,0.06090426
-0.007229868,0.0038296959999999996,0.04009659
-0.015395600000000002,-0.02284921,0.03292241
-0.05696535,-0.02843856,0.0734884
-0.03737064,0.0009625796000000001,0.02407505
-0.06637545,-0.03899435,0.03666487
-0.007637003000000001,-0.04709848,0.02433955
-0.0010562000000000002,-0.01691929,0.01244452
-0.02151398,-0.07658204,0.01007264
0.003279818,-0.006788529000000001,-0.03988828
0.0200774,-0.008424606,-0.01317656
-0.01133495,-0.03371130000000001,0.0182176
0.01879477,-0.0349273,-0.02890754
0.04611343,-0.03084643,-0.04427913
-0.02442819,-0.02737821,0.034903500000000004
-0.0234815,0.009125092,-0.02415469
-0.05039678,0.02520985,0.01303451
-0.014509000000000001,0.06119078,-0.04609498
-0.027077800000000003,-0.03144517,0.004494048
-0.04053675,0.02334731,0.0172268
-0.03733432,0.02931259,0.03430486
0.01114324,-0.0028385520000000003,0.00763507
0.038709600000000004,0.0003286861,-0.0320702
0.00044302919999999996,-0.03538188,0.02200351
0.01380026,0.009820042,-0.006007023
0.015321000000000001,-0.01570237,-0.008407157
0.04446015,-0.01663483,-0.01978194
0.03233396,0.00897867,-0.02166118
0.009781952,-0.04984195,0.004344489
0.01570497,-0.04420551,0.03000524
0.03448363,-0.04914749,-0.0008112621
0.00638428,-0.01748236,-0.01427163
0.009825941,-0.0326498,-0.0007736636
0.03796931,-0.0867419,-0.02392018
0.0037059420000000003,-0.02308803,-0.02315653
0.03035941,0.05310544,-0.03437974
-0.003889097,0.0543938,0.02435124
0.03120436,-0.01786942,-0.007913155
-0.005788613000000001,0.03732789,-0.01535795
0.04888836,-0.006217949,-0.02329551
0.005798684,-0.02592011,-0.008429115
-0.003741325,-0.03764562,0.01086492
0.0008353777,0.001476245,0.01005228
-0.0066462959999999995,-0.06399623,0.05499249999999999
0.007623261,0.04295664,-0.02095724
-0.03183741,0.004047673,0.03793291
0.00986162,-0.08493029,0.01906298
-0.006131050999999999,-0.06318481,0.03759646
0.02339831,-0.037006800000000006,-0.02583583
0.01563346,-0.03724969,-2.219947e-05
0.002683025,0.0006948188000000001,-0.007845853
-0.02886607,-0.03104484,0.02691559
0.007905756,-0.01190229,-0.03849833
-0.01316775,-0.0161405,-0.02172079
-0.009966963,0.02634197,-0.008311245
-0.03256768,-0.0011146110000000002,0.03205768
0.006852098,0.01679767,-0.03392615
-0.02420411,0.04637003,-0.0063034269999999995
-0.02409118,-0.031589,-0.009388008
0.00608595,-0.0650076,0.001076582
0.01596023,-0.008819707,-0.008699815999999999
-0.05056434,0.03063291,0.06070236
-0.0017478220000000002,-0.02019623,0.04124483
-0.004293604,-0.002668215,0.04644313
0.008345116,-0.02866856,0.0395219
0.01618046,-0.06675398,0.006748159
0.02749719,-0.07899523,0.05950966
0.02309361,-0.03316672,0.0916171
0.0671371,-0.02461396,0.03710917
0.06491492,-0.07989117,0.09327921
0.03501834,-0.08408215,0.009881189
0.0317553,-0.11495239999999998,0.00518869
-0.0181389,-0.04360357,-0.01361182
-0.02820277,-0.05601064,0.0007742895
-0.03049248,0.01548266,-0.008191381
-0.0532335,0.06958465,-0.04703252
-0.06138181,0.05692906,-0.01132768
-0.0217575,0.1014671,-0.07835369
-0.07975725,0.06348250000000001,-0.0389736
-0.01861916,0.09470419999999999,-0.1140913
-0.0582178,0.08564898,-0.04182354
0.009156812,0.03347677,-0.09317791
-0.04939775,0.0197074,-0.05013217
-0.06293803,0.0308763,-0.03007364
-0.03948166,0.02086753,-0.02495974
-0.05629352,-0.00866616,0.0178629
-0.02617464,-0.007176745,0.008247687
-0.008979655,0.02260555,-0.03320201
-0.03092606,-0.02617151,-0.009004359
-0.01935898,-0.03418787,-0.01886227
0.001160627,-0.06324916,-0.026279900000000002
0.0031149959999999997,-0.07675473,0.00958161
-0.03529151,-0.02892691,0.04880067
-0.02648453,-0.08661123,0.01629382
-0.04312108,-0.07251853,0.03293477
-0.07575981,0.03033233,0.03495928
-0.04506524,-0.02436488,0.04245567
-0.003860722,-0.02365043,0.02951346
0.03656447,0.01060478,-0.03748762
0.0059183280000000005,0.0071234919999999995,-0.02268769
0.05013096,0.02315152,-0.07905269
0.001407934,0.02672211,-0.04346982
0.02273779,0.06911786,-0.05192203
-0.03466922,0.1280657,-0.01505124
0.03133741,0.05260026,-0.06130652
0.06507745,-0.02565066,-0.06393466
0.04963547,0.02152782,-0.0494587
0.09850932,0.006349512,-0.02520454
0.09624995,-0.04448491,-0.01224014
0.06133339,0.06178044,-0.03572357
0.02929106,-0.041760000000000005,0.05467554
0.01725765,0.03020685,0.001247501
-0.002750475,-0.1440381,0.06673297
0.06177546,-0.16630799999999998,-0.03167181
-0.02286622,0.03892375,0.05035393
0.02916189,0.0344709,0.10874469999999999
0.005396418,0.05850749,0.07379856
0.04755607,-0.05558221,0.07581142
-0.007999461,-0.07151222,0.05383978
0.01903219,-0.06496138,0.02890765
-0.005172535,-0.05845818,0.01617658
0.05361397,-0.1084415,-0.04622325
0.01528666,-0.058363099999999994,-0.02111157
-0.01078176,-0.0340929,-0.02526207
0.02354647,-0.06657214,-0.006712073000000001
-0.0292774,-0.0234317,0.008592513000000001
-0.002531506,-0.029307099999999996,-0.02270774
0.0411352,-0.00497169,-0.05425129
0.01484826,-0.02964694,-0.04404983
0.007991929,0.06749274,-0.03639213
0.01188,0.0780317,0.06015597
0.02582088,0.03374796,-0.03469249
0.02992111,-0.05378126,-0.02431081
0.02528324,-0.06112271,-0.09592395
0.02930468,0.03882755,-0.02099121
0.004737247,0.1862527,0.02699401
0.005117794,0.03694306,0.05640326
-0.03045577,0.004969205,0.06657629
-0.03831157,-0.03962014,-0.0247655
-0.05618086,0.004596605,0.01790729
-0.0272737,0.08609211,0.005591291
-0.002033044,0.02352554,0.0496145
-0.03119481,-0.04748686,0.03378334
-0.04068195,-0.01894887,0.00795877
-0.0007074567999999999,-0.002248581,-0.0027986129999999997
-0.02688947,-0.06156099,0.02484934
-0.07270839999999999,0.001798991,0.005610591
-0.07061824,-0.005889531,-0.004046954
-0.06054584,-0.004972313,-0.02580458
-0.07962859,0.03971986,-0.03012949
-0.07167116,0.05500967,-0.006411513000000001
-0.02963368,0.02448135,-0.03571807
-0.115372,0.04940312,0.05667319
-0.05945644,0.00289461,0.01636805
-0.07859906,-0.05418307,0.0005231947
-0.06854980000000001,-0.03029357,-0.01727322
-0.1308693,0.02104132,0.05595056
-0.06980007,-0.05249567,0.03313169999999999
-0.08238833,-0.02494212,0.0039193000000000006
-0.11504729999999999,-0.009769646,0.10033489999999999
-0.06187595,-0.02573492,0.04966252
-0.06029456,0.007962871,0.07833274
-0.03193256,-0.02707672,0.09858564
0.0218762,-0.01376141,0.06029165
-0.01700367,-0.08328147,0.09897014
0.05779511,-0.05225525,0.01853745
0.06325211,0.004089542,0.00211703
0.14787720000000001,-0.1068056,-0.03522803
0.1050569,-0.05047955,-0.06240626
0.1508396,0.009121262,-0.1136282
0.1177608,0.04199949,-0.03579957
0.10676469999999999,0.04671631,-0.03878716
0.11575710000000002,-0.03847312,-0.04819985
0.08450485,0.02776221,-0.04898112
0.10516110000000001,0.03346464,-0.03150173
0.1293983,0.03612687,-0.04397044
0.04594826,0.07415784,0.0062255259999999995
0.04493875,0.07852510000000001,0.007532345
0.02458385,-0.03905948,0.04760938
0.03319794,-0.008877305,0.04708944
0.03447945,-0.04235312,0.03843553
0.04553114,-0.05200263,0.002808645
0.01889266,-0.06686865,0.02049894
0.021147299999999997,-0.08288057,0.0298967
0.01513326,-0.06431629,0.038662199999999994
0.003077968,-0.01347039,-0.0038974229999999997
0.01336224,-0.02986196,-0.0005735583
0.05000829,-0.03483885,-0.03707991
0.02682748,-0.07421397,-0.00813852
0.02204133,-0.04049172,-0.04283813
0.04901952,-0.02131431,-0.05459614
0.005740281999999999,-0.04065339,0.007540476999999999
-0.01580686,-0.01158821,-0.01876413
-0.003510306,0.005384889,-0.07136045
-0.06218783,-0.009657935999999999,-0.02978536
-0.04663816,0.00732269,-0.04868698
-0.05966099,0.03309019,-0.04929144
-0.04284487,0.05796495,-0.04634018
-0.05125135,0.01913164,0.0032690320000000003
-0.02439574,-0.0072509869999999995,-0.00856289
-0.04877152,0.01091965,-0.02565085
-0.07052394,0.03101929,-0.002599927
-0.0281358,-0.01182505,0.01020502
-0.01328737,-0.05671844,0.02067094
-0.03441228,-0.004682019,0.02197844
-0.06083551,-0.0025153610000000002,0.02925053
-0.02807824,-0.0030337740000000004,0.04203772
-0.03977177,0.02126015,0.03707326
0.003166563,-0.001994304,0.00357454
-0.01550072,0.03033559,0.05220053
