Acc_x,Acc_y,Acc_z
0.003424605,0.00444521,0.01933712
-0.03938176,-0.007168449,0.004449537
-0.0060200159999999996,-0.004734844,-0.00286986
0.02953632,0.02021934,-0.01431591
0.004935216,-0.002458347,-0.003098348
0.002988382,-0.03217397,-0.0046610309999999995
-0.01504002,-0.030324200000000003,-0.004437715
-0.003742837,-0.002994042,0.01590304
-0.01255033,-0.02147673,0.005909216
-0.01678918,-0.0442175,0.009334479
0.002958026,-0.01507697,0.008047862
-0.007566594,0.04624666,0.009078736
-0.004775439,0.05523399,0.006293505
0.03930728,0.06041761,-0.00118375
-0.01273054,-0.007753449,-0.009806659
0.04226132,0.04673569,-0.01836758
0.03045901,-0.03756321,0.03052826
-0.02636753,-0.01675819,0.001853818
0.03819218,0.01701499,-0.0005505793
0.002091899,0.01415668,-0.01722842
0.002360412,0.009846717,-0.0074723490000000005
0.02249846,-0.005965538,-0.01509848
0.0699337,-0.01237224,-0.0005386006
-0.01339243,0.05279499,0.0068318730000000005
0.01599715,0.008100063000000001,0.01110588
-0.05360039,-0.01626222,0.01788331
-0.05624764,-0.04400639,0.006418794
-0.03712326,-0.01092461,-0.000537103
0.04810851,0.01501044,0.00179443
-0.01251592,-0.03751279,0.03853633
0.00523713,-0.03811123,0.05413089
0.00454663,-0.02303405,0.03920889
0.002567452,-0.04973648,-0.007559423000000001
-0.02943943,-0.05099864,-0.03639607
0.02539982,-0.04880393,-0.05108312
-0.04783725,0.06603678,-0.004902292
-0.03136523,0.16641979999999998,-0.002180384
-0.01964114,0.1834998,0.02515243
-0.01851303,0.09421030000000001,0.006995035
-0.008191178,-0.05168523,-0.006679319
0.01712726,5.725771e-06,-0.02170374
-0.02362078,0.1234731,-0.03983535
0.01182655,0.07055122,-0.05346801
0.01152048,0.05587808,-0.04263725
-0.000717937,0.04106283,-0.05195977
0.05560232,0.01640786,-0.04217374
0.04972598,0.06569515,-0.0273546
-0.009871339,0.03838023,-0.007350548
0.01913526,0.01231943,-0.00285078
0.009303513000000001,-0.01940629,-0.03759122
0.02217426,-0.14366729999999997,-0.01629649
0.07420357,-0.2665586,-0.05126442
-0.07211016,-0.2194024,-0.0423662
-0.08194877,-0.08728109,-0.0052179620000000005
-0.03054859,-0.05528975,0.04490118
-0.0085932,-0.0190976,0.09845217
-0.02862005,-0.05914412,0.1267482
-0.00648763,-0.02744216,0.08933894
-0.003210125,-0.01349459,0.09512782
-0.06025254,-0.06944562,0.09503764
0.02205142,-0.0661975,0.08876976
-0.0004973263,-0.02704171,0.06777909
-0.03001642,-0.01147005,0.1008505
0.00987513,0.14993829999999997,0.09481897
-0.01056003,0.29228899999999997,0.07101254
-0.05295518,0.12978610000000002,0.10450050000000001
0.01615953,-0.08903278,0.0023048120000000003
0.04647921,-0.14927449999999998,-0.07423674
0.04591377,-0.04811758,-0.1031453
-0.01176371,0.0059681759999999995,-0.08209019
-0.002188597,0.02806956,-0.05946079
0.01430314,0.02369387,-0.06881043
0.05242074,0.01682782,-0.06508201
-0.002890566,-0.05613983,-0.02514243
0.007433413000000001,-0.03968689,-0.06285615
0.01345505,0.10477049999999999,-0.0500798
-0.01809403,0.1239242,-0.05008379
0.05999425,-0.1495766,-0.05699997
-0.01798174,-0.11969369999999999,-0.001997838
-0.02280293,0.09497533,-0.03074216
-0.02714173,0.06637086,0.00537805
-0.01440335,0.04611837,-0.01434032
0.01730775,-0.0423529,0.006459123000000001
0.03888033,-0.11541960000000001,-0.04698481
0.007193667,-0.05872128,-0.03981203
0.03895176,0.01996076,-0.02523376
-0.06273202,-0.07269692,0.04601543
0.06654316,-0.01312197,-0.02973615
0.03026058,-0.01274063,-0.02753052
0.02690145,0.01804218,0.004839885
0.0504779,0.009056966999999999,0.0017413079999999998
0.02554205,-0.01398725,0.026164999999999997
0.02725,0.06815878,0.01010777
-0.01163696,0.07733547,0.05927451
0.02524794,0.04455186,0.04602137
0.01401734,-0.008696303,0.0546976
0.01996231,-0.01308609,0.06191566
-0.001108652,-0.01366014,0.06103563
-0.003202113,-0.04248578,0.05483438
-0.01865168,-0.09079084,0.02260192
-0.04565717,-0.08109672,0.02598792
-0.03596191,-0.02254362,-0.006123345
-0.01794476,0.01583269,-0.01015222
-0.02450674,0.01170019,0.01282606
-0.01029331,-0.002439059,-0.02497289
-0.05432065,0.0481561,-0.03109126
0.02233805,-0.03010818,-0.03746005
-0.009363079,-0.01372097,-0.0279404
-0.0182817,0.0636539,-0.04965398
0.01811972,0.03995023,-0.06305026
-0.01446874,0.0069298369999999995,-0.04907313
0.007555162,0.02148363,-0.05201551
-0.03773166,0.005276746999999999,-0.05051202
-0.02467214,-0.07269863,-0.05229484
-0.02857919,0.01260776,-0.07285706
-0.07401208,0.04453672,-0.03166831
-0.0403728,0.02186448,-0.02528357
-0.05674917,-0.03553456,-0.02577441
-0.05656235,0.007637024,-0.05393928
-0.02978664,-0.07604349,-0.02654701
-0.00292901,-0.07839458,-0.009104085
0.06013861,-0.11994589999999998,0.01909939
-0.02548129,-0.07740556,0.05923212
-0.01691616,-0.001194934,0.04044583
-0.01601279,0.03381905,0.03364132
0.005222225,0.08137103,0.02377125
-0.05347357,0.03932384,0.08807307
-0.06598827,0.03808846,0.090223
-0.04721688,-0.02534738,0.08145203
-0.04142595,-0.02630535,0.06380223
-0.05257172,-0.0129696,0.04337136
0.03136692,0.02152763,0.02441126
-0.003166688,0.06746757,0.009705577
0.04272685,0.004247084,0.03064295
0.01134533,0.01723837,-0.00221005
0.02694889,0.04430084,-0.02048592
0.03825966,0.0109834,-0.02085007
0.01597494,0.02149107,-0.004917554
0.001084214,0.02745537,0.004362831
0.005250006999999999,-0.00638647,-0.0024060039999999998
-0.0001105273,-0.01428042,-0.007351585
-0.008882415,-0.0073446530000000005,0.006442363
-0.027900900000000003,-0.05888592,0.010571500000000001
0.009342209,-0.05705469,0.007417225
-0.01083069,0.01027049,0.01503439
0.01621824,-0.02398128,-0.0116335
0.05073788,-0.01090845,-0.01498308
0.03012003,0.02416898,-0.009016505
0.02121283,-0.01290697,0.00775958
0.01760393,-0.0306195,0.01201235
-0.09652613,-0.02582732,0.02902285
-0.02294499,-0.08574578,0.02347193
-0.0144053,-0.08845311,0.02285295
0.04102338,-0.02340178,-0.01866274
0.02171316,-0.02645368,-0.003957438
0.0007184602,-0.002398085,-0.003018232
0.01091764,0.00547641,-0.015341399999999998
0.02475632,0.03886228,-0.03947754
0.03374276,0.03761029,-0.009319201
0.04876816,0.07176291,-0.03978048
0.005206806,0.057713099999999996,0.009061955
0.02355279,0.0005025491000000001,-0.002676516
-0.01275419,0.08094115,-0.02393637
0.003168254,-0.09178713,0.01085589
0.04501079,-0.01670565,-0.02981707
-0.004427752,-0.03232569,-0.02229759
0.04407007,0.008964797,0.0077654080000000006
-0.02332533,0.02061015,0.005974131999999999
-0.03756176,0.05628002,-0.0009650923
-0.002151258,-0.007922537,1.184212e-05
-0.009174339,0.005677608000000001,-0.01519337
-0.05835807,0.02093049,0.02191654
-0.04423506,-0.02346214,0.05363506
-0.004253993,-0.05054181,0.02109563
-0.01568663,-0.04362002,0.005242872
0.01582945,-0.07349934,0.00958728
0.004631336,-0.0007386542999999999,-0.02359718
-0.02074821,-0.03305421,0.01904176
-0.0193722,0.008669227,-0.02550812
-0.009658677,-0.01995847,0.04151065
-0.02225565,-0.01511714,0.03320601
-0.08282129,0.01493881,0.01229861
-0.01916555,-0.02826058,0.04258008
-0.005766523000000001,-0.01999063,-0.0002109256
-0.01098095,-0.01254829,-0.007047855
-0.005514641,0.02400706,-0.004675901
-0.05235152,0.03384044,0.00321291
-0.01232789,-0.01918937,0.03292898
-0.05338378,-0.04023195,0.03350278
-0.04607754,-0.06245068,0.02403511
-0.03376806,-0.0585165,0.01292931
-0.05728931,0.01405169,-0.02057548
-0.05506884,0.02045968,-0.005862686
0.01618791,0.04111938,-0.002963898
0.01484399,0.04763628,-0.004759625
0.02918572,0.05047699,-0.01624292
0.07499927,-0.006302673000000001,0.0055366569999999995
0.06844572,-0.0040467640000000004,0.02244415
0.06117939,-0.01973277,0.0003192183
0.04809095,0.01692385,-0.008243125
0.04459688,0.07193758,-0.03343508
-0.01503616,-0.007237761999999999,0.02796724
-0.0185419,0.03520574,0.01914072
-0.01648603,-0.015017600000000002,0.04427408
0.0005367873,0.0016576370000000002,0.02607746
-0.03112383,-0.02534638,0.004513817
0.04187793,-0.06773327,-0.006471049
0.01009789,-0.0106544,-0.04325856
0.0035345909999999997,0.007825244,-0.01631523
0.00273338,0.01747666,0.02866003
-0.009261282,0.04460468,0.01061427
0.04409804,-0.22046390000000002,-0.05521815
0.04449821,-0.04262565,-0.08397517
0.01697965,0.03639652,-0.05593799
0.006329225,0.08029807,-0.03100468
-0.05859592,0.101878,0.0002470445
-0.02240967,0.11377129999999999,-0.04174727
-0.04766647,0.06826615,-0.03090245
-0.07726128,0.03055289,-0.01435084
-0.06138430000000001,0.02574208,-0.001104902
-0.04941799,0.007582724,0.01192355
-0.01985866,0.05981643,-0.02255175
-0.08349012,0.03835744,0.036530400000000005
0.01508437,0.01246663,0.02069776
-0.04590148,-0.005766649,0.05322212
-0.02522836,-0.001995895,0.06862622
-0.02976665,0.1003475,0.07316115
-0.05115335,0.09625119,0.116101
-0.07709619,-0.02217442,0.1173391
-0.05802001,-0.03869757,0.07337905
-0.005630588000000001,-0.1066405,0.07021528
0.11273219999999999,-0.01033515,0.000285577
0.0627467,-0.006673701999999999,0.020144400000000003
0.03589572,-0.02184783,-0.008443273000000001
0.02974129,-0.07184272,-0.03198523
0.02172455,-0.1010549,-0.003888607
0.02380268,-0.02546717,-0.07957688
-0.0058705219999999995,-0.0037111640000000003,-0.04235828
0.02455141,0.11293289999999999,-0.02533994
0.01295619,0.1736382,-0.14648150000000001
-0.02501401,0.1515858,-0.05073802
0.026461900000000003,-0.119952,-0.05710734
0.02397622,-0.10255619999999999,-0.08840304
-0.05466899,-0.05226144,-0.05044278
0.01220492,0.07849836,-0.04073019
0.04993665,0.01584763,-0.06370072
-0.0024926429999999997,0.029480799999999998,0.01464841
0.02749275,-0.03070969,-0.038438
0.01020129,-0.01534689,0.004418712
-0.02156604,-0.02273141,-0.03491133
-0.0294721,-0.003678897,-0.02157185
0.006278516,-0.07087111,0.0347033
0.0028609890000000004,-0.06483692,0.04405667
-0.0036472559999999998,-0.05451496,0.0213412
-0.05773999,-0.0972242,0.07160398
-0.01279271,-0.05813076,0.05472204
-0.01471614,-0.0990558,0.04833312
0.05046235,0.02981753,0.008303558
0.02067758,0.1406571,0.08294221
0.04043256,0.07213183,0.11286860000000001
0.04265174,0.03807241,0.08343300000000001
0.04631616,0.09088147,0.03608349
0.01136888,0.01571637,0.02692098
0.02695952,-0.1546537,-0.05626602
0.04539829,-0.11921580000000001,-0.03905072
0.02313799,-0.0051070379999999995,-0.06042221
0.05829394,-0.01764285,-0.06268018
0.04370081,0.015196600000000001,-0.04491442
0.04471071,-0.02450813,-0.06769700000000001
0.00039874199999999994,-0.007347946,-0.08021289
-0.01785311,0.02157887,-0.0713758
-0.003157782,0.06396431,-0.03715735
-0.0043416290000000005,0.01497885,-0.04099197
-0.009835935,0.02333383,-0.04555344
0.04158866,-0.04371877,-0.05217203
-0.007146108000000001,0.04926353,-0.03408418
-0.06053808,0.0852377,-0.03106499
-0.05305535,0.04761133,-0.0058611259999999995
-0.07436210000000001,0.0193213,-0.02932223
-0.03334866,0.009661874,-0.01085283
-0.0132035,0.04316396,0.02584516
-0.03641716,-0.008917155,-0.02989578
-0.05216896,-0.02298185,0.02019425
0.03046908,0.008953899,0.02036649
-0.01082486,-0.10668299999999999,0.03540077
0.03613448,-0.1676335,-0.003356149
0.02596002,-0.073752,0.0003780345
0.02500159,0.03082372,0.02865832
-0.007752213000000001,0.03676787,0.04320619999999999
-0.0044634720000000004,0.02377845,0.02903149
0.008575179,0.01928122,0.04734434
0.08076710000000001,-0.07611783,0.04920949
0.0181689,-0.04391361,0.06628378
0.04322661,0.04181805,0.07858746
0.09256985,-0.0322599,0.06432039
0.008054865,0.01266896,0.06265681
0.05329011,0.02705862,-0.006624015
0.03744693,0.009220939000000001,-0.02162832
0.01121223,-0.04163754,0.005348764000000001
-0.03109569,-0.003427066,-0.01222891
-0.03610269,0.04881738,-0.0190729
-0.02262118,0.01697196,0.009081398000000001
0.005124186,-0.02864334,0.002597243
-0.0004313448,-0.03573418,-0.0009166815
-0.02890829,-0.08279164,-0.01944385
-0.02669932,-0.0178725,-0.0132727
-0.03984705,0.005625675,0.00479856
-0.01343139,-0.0057463,-0.009494691999999999
0.01793779,-0.04823203,0.01249985
-0.04870551,-0.009789038,-0.01224272
0.03362883,0.04195529,0.0031158220000000003
-0.01111085,0.09702443,0.03596349
-0.0036591090000000002,0.1253242,0.04895354
0.01477323,0.001595505,0.04650215
0.04748231,0.008109665,-0.00865545
0.02090034,-0.10326860000000002,-0.03723288
0.02292512,-0.02712245,-0.03291056
-0.01090204,-0.02808076,0.0137097
0.04322271,0.01660325,0.002276661
-0.021317,0.01864516,0.02482244
-0.00291532,-0.01531431,-0.003429315
0.01807272,-0.03467567,-0.03031407
-0.03282278,-0.03829107,-0.02045872
0.05624155,-0.008959802,-0.03929861
-0.03695198,0.02214257,-0.01332479
0.03089025,0.02376355,0.01540767
-0.02271902,0.07074099,-0.02409389
-0.05594193,0.003873836,-0.0002862327
0.009471544,0.002114793,-0.02650412
-0.06081177,-0.01251892,-0.0325111
-0.03984893,-0.02434609,0.0017831720000000002
-0.0030493020000000003,-0.01020499,0.008980094000000001
-0.01154639,-0.03111591,0.003276265
-0.03785002,0.01133488,0.0016402429999999998
-0.05293577,0.0331297,0.02721135
-0.05913088,-0.06496647,0.0410133
-0.04026692,-0.06699486,0.02460112
0.0013965720000000002,-0.006532095,0.03069661
0.00255904,-0.03057382,0.02266378
-0.00016316290000000002,0.02339675,0.00554833
0.03285271,0.07482928,-0.0120307
0.008890138,0.07337446,-0.02426438
0.008277226,0.06475874,-0.01623081
-0.04783013,0.01916669,-0.0169746
-0.03292099,-0.03322573,0.008102329
-0.009968577,0.01315861,-0.03645523
0.0581755,0.01253392,-0.04855087
-0.01487835,0.04612158,-0.02794901
0.01554741,0.03578089,-0.04319407
0.006696707,-0.01459386,-0.01699265
0.04534278,-0.01673866,-0.01457958
0.03709519,-0.057524,0.00209043
0.1089472,-0.03859876,-0.02066984
0.02677774,0.03338195,-0.03104223
0.07253398,-0.00343074,-0.02031889
-0.004882355,0.008146845,0.004207071
-0.004333496,-0.03565544,0.03645327
-0.04524656,0.01068907,0.03258734
-0.03903525,-0.004110847,0.04167451
0.004445956,-0.02509641,0.03486029
0.00476576,-0.008109279,0.01071479
-0.03393193,-0.011176299999999998,0.03575225
0.007334683000000001,-0.09658983,0.004066804
0.002310904,0.06148369,0.0009044836
0.017566099999999998,0.0306762,0.04654994
0.0054382680000000004,-0.01684115,0.03035161
0.02348387,0.03782704,-0.01217608
-0.03369733,-0.0016554389999999999,-0.002373895
-0.03705147,0.01503976,-0.01147476
-0.03506764,0.02246759,0.004937541
-0.02197604,0.06897148,-0.01059243
-0.0137104,-0.009393983,-0.06991909
0.02425656,-0.05134653,-0.08039969999999999
-0.03851980000000001,-0.12133010000000001,-0.06073412
0.008445351,-0.06647676,-0.05382367
-0.0014833779999999998,0.08373464,-0.02365689
0.0022933420000000003,0.003199369,-0.0034173890000000003
0.01317042,0.05446351,-0.03743112
-0.03769913,0.006973629,-0.01230779
0.03749018,0.02716785,-0.03569033
-0.02050072,0.02551722,0.02014853
-0.01074526,-0.0020732579999999997,0.03285796
0.04117332,-0.03707843,-0.0056067930000000005
-0.05445,-0.07340597,0.020953599999999996
-0.01085868,-0.03631702,0.006472643
0.01727934,0.03419317,-0.005185419
-0.06163748,-0.01212943,0.06263299
-0.04611859,-0.02376849,0.03391631
0.01574663,-0.08678225,0.01556322
-0.0340149,-0.0751473,0.01554513
0.01667575,-0.06387205,-0.0525679
-0.08443503,0.03932626,0.03460909
-0.09901027,0.12040930000000001,0.04202726
-0.0254675,0.09559315,0.05279162
0.001259238,-0.02614032,0.02002064
0.01467058,-0.07474402,-0.02416341
0.02836161,-0.07775606,0.008426905
-0.004060149,0.02936852,-0.003074875
-0.00940053,0.09681619,0.02078388
0.01123682,0.05080759,0.0147654
0.01456374,0.0005200456,-0.01050598
0.05331453,-0.04327428,0.002187353
-0.03295188,0.05767083,-0.03199529
0.02985121,-0.01364826,-0.02546993
-0.01144355,0.05873751,-0.032842199999999995
0.01118943,0.07330722,0.01914431
-0.02122898,0.1759396,0.02026669
-0.0055440509999999995,0.009056538000000001,0.04161857
0.02154605,-0.05325426,-0.02503279
0.01786584,-0.1055233,-0.0325621
0.06170487,-0.01637087,-0.097583
0.08831189999999998,-0.1905895,-0.06532674
0.04374946,-0.07340805,-0.0797008
0.06827759,-0.1031775,-0.09874826
0.03497997,-0.07703579,-0.01207929
0.04097247,0.09237228,0.01612154
0.04097576,0.1671453,0.06106179
0.02762885,0.05567956,0.04788729
0.06399769,-0.05740216,0.0470864
0.02664866,-0.08760112,0.006231402
0.00251247,-0.09712097,-0.004330021
0.02199521,-0.01952212,-0.0002992204
0.02268219,-0.003832214,-0.026971600000000002
-1.190067e-05,-0.007707454,-0.00603882
0.03668093,-0.050477600000000004,-0.003374367
0.002210733,-0.21408850000000001,-0.014145500000000002
0.07009751,-0.198602,-0.04915526
0.00108809,0.004898198,-0.0198889
-0.01888825,0.04275626,0.03306728
0.024299900000000003,0.0458805,-0.002158291
0.02020361,0.04917071,0.03568471
-0.01560958,0.03012709,0.07717207
0.01958412,0.09976325,0.05026407
0.04567382,0.06126433,0.0276466
0.03918843,-0.04241065,0.04416331
-0.007866085,-0.16150910000000002,0.0345929
-0.0035559470000000003,0.007607816999999999,0.01860102
-0.006285684000000001,0.04212361,0.06671972
0.0063877909999999994,0.05897921,0.10898030000000002
-0.02952882,-0.1551856,0.05986364
0.02253772,-0.1774021,0.02928865
0.0734516,-0.08643868,0.02258717
0.006824975,0.004998896,0.07881903
-0.002178395,0.09799275,0.09757527
0.01726128,0.00712511,0.1041891
0.03316632,-0.02214165,0.06124363
-0.01732708,-0.01566577,0.03668215
-0.03911908,-0.05527432,0.007343398
-0.05703153,-0.04527043,0.01887043
-0.07960679,0.07161283,0.0073684
-0.05003227,0.10948110000000001,-0.03104866
-0.06230485,0.01928592,-0.01036335
-0.02934043,-0.02336968,-0.052519399999999994
-0.07428095,-0.09075018,-0.04435244
-0.09849502,-0.01141412,-0.06685702
-0.01486065,0.006960625,-0.08300357
-0.03041493,0.04909989,-0.05114337
-0.02422729,-0.04585213,-0.03130707
-0.04885216,-0.008463055,-0.03313527
-0.02291147,0.03107353,-0.02718827
-0.0139816,0.06528521,-0.03932516
-0.003439181,-0.0062232369999999995,-0.07866298
-0.01761423,-0.02416652,-0.0781315
0.009126735,-0.02958884,-0.05975018
-0.0052913380000000005,-0.01463749,-0.007922631
0.034358,0.009221997,-0.02685298
0.02015902,0.004020523,0.008740703
0.06379618,0.006741284,-0.009799054
0.06345822,-0.01523651,-0.01133395
0.01311152,0.0014859329999999998,-0.008428652
0.02212035,-0.05677485,-0.0032320409999999997
0.009152303,-0.0029693209999999996,-0.01465606
0.01040049,0.03112917,-0.01793139
0.02065572,-0.00186487,0.01086549
-0.01205238,-0.03994963,0.03034401
0.006779222,-0.055027099999999995,0.002215252
0.003882881,0.01122472,-0.004311465
-0.0004742425,0.0016839539999999999,0.03226895
0.02451071,0.03194494,0.0124411
0.019925599999999998,0.02928558,0.0259933
-0.02431441,0.02967077,0.04133045
0.06779096,-0.009467319,0.01989294
0.08715343,-0.01712492,0.006262502
0.0513971,0.03701504,0.0075119340000000005
0.04276858,-0.06016198,0.03234998
0.0032817470000000002,0.0014681129999999998,0.03707981
0.03318119,0.0171602,0.03433421
-0.01462557,-0.05952414,0.04434451
0.0001293449,-0.01496476,0.03287233
0.05180108,-0.01527301,0.0413917
0.01890886,-0.05567931,0.05630481
-0.01109055,-0.03102957,0.02380469
0.04434516,0.013895900000000001,0.02442779
-0.03024701,0.02808614,0.04390647
-0.01649076,0.06627374,0.04666846
0.003449353,0.08635113,0.04291853
-0.01219314,0.02745718,0.04878286
-0.02702178,-0.01523766,0.03021694
-0.10299649999999999,-0.10897470000000001,-0.005067149
-0.0368325,-0.0604938,-0.05655477
-0.02483018,-0.03952919,-0.05865006
-0.03431854,0.05146807,-0.03717019
-0.04511512,0.04164316,-0.014975299999999999
