Acc_x,Acc_y,Acc_z
0.01589399,0.0297375,0.004780145
0.0006910375999999999,0.02797992,0.05056196
-0.01117136,0.01686021,0.01290051
-0.009349798000000001,-0.01571771,-0.02048989
-0.050143400000000005,-0.01865098,0.01346303
-0.02839624,0.02546967,0.001195901
0.06266934,0.01639662,-0.03097258
0.02949022,-0.07577226,-0.04898426
0.05453677,-0.03657164,-0.04012365
0.0932717,-0.03012121,-0.01177665
0.02919424,-0.04773843,0.007461336999999999
0.09585793,0.0026645659999999997,-0.0492054
0.03741894,0.00861394,-0.05436368
0.05615266,0.004984029,-0.04309314
0.05900268,0.02246196,-0.04670856
0.07674052,0.002188766,-0.02651315
0.045931099999999996,0.0038135029999999998,-0.02000399
0.0440858,0.04135626,-0.01473534
0.05994833,0.008395866,-0.03184455
0.02927382,0.03831692,-0.02243758
0.03536989,-0.01964485,0.01378164
0.01876452,0.0305813,-0.0022262239999999997
0.06367572,0.007090216999999999,0.0129151
-0.02993277,0.04233105,0.04568867
-0.003960535,0.06302567,0.04194761
-0.05073355,0.07104008,0.05439153
-0.01780922,0.04052618,0.05348345
-0.0002857908,0.0478052,0.02772266
0.01976501,0.03365019,0.02642358
-0.02781274,0.05605082,0.01631856
0.02612902,0.009108833,0.02614903
0.02940101,0.07018932,0.03484751
0.06227422,0.02088073,0.02340121
0.02768118,0.0036674290000000003,-0.00247019
0.05577293,-0.0246568,-0.05081804
0.0039966459999999995,-0.04207881,-0.03265893
-0.009474319,0.02401045,-0.02350812
0.02192923,-0.01327891,0.004802185
-0.05963042,0.08986347,0.03287164
-0.01250828,-0.007045904,0.01917407
0.03066398,-0.04754614,-0.02709746
-0.01853339,-0.03665619,-0.030423200000000004
-0.00970545,-0.01534167,-0.04067646
-0.01996632,-0.01311518,-0.03271477
-0.06690387,0.04634276,-0.02003025
0.002945445,-0.008896353000000001,-0.01764674
0.01182084,0.0848617,-0.01987902
-0.005856648000000001,0.11934729999999999,-0.04136108
-0.01089184,0.02411646,0.009501426
-0.0053001359999999996,-0.0249637,-0.001328833
-0.05113494,-0.10973920000000001,-0.002439865
0.04322274,-0.16208820000000002,-0.04733723
0.08386949,-0.1548971,-0.05035822
0.04519579,-0.1277222,-0.06317348
0.02351454,-0.10424280000000001,-0.07142691
-0.06597513,-0.00138041,-0.07476555
-0.03046788,-0.08635599999999999,-0.01689982
-0.06699552,-0.0019083729999999999,0.03326495
-0.05620579,0.1404971,-0.0007998496
-0.02045205,0.002221882,0.1116156
-0.07598295,-0.1330044,0.01848614
-0.006057096,-0.01290428,-0.01154682
-0.008651951,0.08142017,0.02091082
-0.04172899,0.07132887,0.04198295
-0.04265434,0.1254308,0.04845024
-0.06013039,0.2498737,0.07982911
-0.08822441,0.11724460000000002,0.1225695
0.005169277,-0.18078550000000002,-0.04151107
0.002770426,-0.20154829999999999,-0.07581282
-0.02762886,-0.1043822,-0.06225094
0.01869744,0.05092739,-0.06034531
-0.004487149,0.01990758,-0.005796653000000001
-0.04431482,-0.01428225,0.01242007
0.01862592,-0.05367544,-0.01948436
0.01376947,-0.1306501,-0.02041646
-0.003568139,-0.06109081,-0.03112706
-0.008131912,0.02574311,-0.01732005
0.01911489,0.05986944,0.03711628
0.008373496999999999,0.04837036,0.05211956
0.05847938,-0.02468973,-0.01017526
0.005051654,0.0181063,-0.02971534
0.02535842,0.03699723,-0.009084601
0.03870105,0.10416089999999999,-0.01151626
-0.01709273,0.0608548,0.05012621
0.003213718,0.05309802,0.04371278
0.05764107,-0.003109805,0.03220167
0.03763716,-0.03935458,0.003754268
0.03401706,-0.05570004,-0.04522039
0.04927909,-0.007992349000000001,-0.02324428
0.03116704,-0.0924701,0.015084799999999999
-0.04829411,-0.04218192,0.02609072
0.008122949,-0.03253943,0.003053606
0.07767814,-0.0453075,0.009829456
0.1363894,-0.09741755,-0.02656678
0.04248086,-0.1429289,-0.056713099999999995
0.01836928,-0.05475432,0.01136776
-0.1188259,0.1021831,0.09644778
-0.08851521,0.2772608,0.01611454
-0.08758408,0.30836149999999996,-0.05903532
-0.02650282,0.05499327,-0.1427382
-0.06825179,0.05601705,-0.07902558
-0.02588866,0.10875919999999999,-0.01301696
-0.02622239,0.1068491,0.07215147
0.08117631,-0.06508917,0.1077815
0.09978648,-0.10390230000000002,0.04699525
0.07842453,-0.22882470000000002,0.06464631
0.01261749,-0.251849,-0.01821546
-0.01135492,-0.288752,0.006542615
-0.01569332,-0.16826649999999999,-0.02857732
-0.01977697,-0.12628150000000002,0.03806053
0.02997345,-0.1803125,0.062065800000000004
0.04511506,-0.006246403,0.03019124
0.06380464,0.03781598,0.01453475
-0.003831808,0.07435057,0.01798098
0.0124499,0.0005674288,0.009309656999999999
0.028263,0.06385079,-0.01967831
0.04856091,0.09860311,0.01269894
0.05608155,0.1384398,0.004478017
0.08169335,0.07583541,-0.01321353
0.005981878,0.06190223,-0.004120899
0.04836778,0.06533797,-0.01519728
0.01394112,0.01649851,-0.0361218
-0.01335401,0.043707199999999995,-0.02507413
-0.06799921,-0.004500792,0.01174645
-0.03930775,-0.02460477,0.02580556
-0.06042838,-0.02955214,0.002629087
0.01624324,-0.07198348,-0.02459928
-0.04200623,-0.08028356,-0.01623837
-0.02648635,-0.03499475,-0.03511525
-0.009009765,0.00178561,0.01192835
0.01250766,0.06233545,0.008201684
0.01109478,0.02649125,0.03461901
0.0142281,0.02717361,0.05382322
0.02319587,0.04731799,0.04359942
0.03610529,-0.04972215,0.05154126
-0.0068501740000000005,-0.08625366,0.07990211
0.0140659,-0.04901912,0.04326106
-0.02107843,0.01353399,0.03835906
0.03366417,-0.0029056359999999996,0.03156444
0.00729656,0.02901586,0.01286413
0.01275769,0.02936137,-0.02845627
0.06103709,-0.03547384,-0.05364551
0.0208735,0.02744765,-0.06695611
0.05069176,0.006729581,-0.04407827
0.06544492,0.06876317,-0.05848458
0.07416695,0.09446087,-0.04484407
-0.01991663,0.02352641,-0.006355908
-0.0077903619999999995,0.03390226,-0.04912744
0.01554532,0.05305972,-0.07432234
-0.03226361,0.03609844,-0.03556021
-0.06363743,0.02163266,-0.007732052
-0.05254519,0.0107368,-0.01869009
-0.02973801,-0.06557155,-0.01604746
-0.02754883,-0.05229281,-0.02414071
0.007277016999999999,-0.04303334,-0.007047419
-0.02586302,-0.04686334,0.0015482170000000002
-0.02499349,0.009421818,0.03459173
-0.02468499,0.1011135,0.003174047
0.01228267,0.01437561,0.02400647
0.005425615,0.03124837,0.007534616
-0.01410921,-0.009870897,-8.799042999999999e-05
0.0004691682,-0.08464634,0.02799496
0.02857575,-0.03185039,-0.02032242
-0.02836619,-0.006611109,-0.00191824
0.03685724,-0.00702597,0.0049051120000000005
-0.06707616,0.0365248,0.0189261
-0.05185159,0.03790259,0.007702484
-0.05205141,0.0001060739,0.002095114
-0.04945154,0.009591723,-0.01612962
-0.05196714,0.05265867,-0.01052652
-0.04622694,0.03699049,-0.0054347580000000005
-0.03053273,-0.02816236,0.02906573
-0.0166452,0.004040714,0.013693100000000001
-0.01486602,0.039492400000000004,0.01890429
-0.07655652,-0.002276903,0.04426519
-0.10604360000000002,-0.05817511,-0.01014453
-0.1080569,-0.009579863000000001,-0.005472485
-0.03452807,-0.03436337,-0.002100975
-0.04416925,-0.02008089,0.01449246
-0.07102514,-0.03078415,0.05378683
-0.06613646,-0.009794879,0.05693464
-0.04581508,-0.08876945,0.01995231
-0.0289637,-0.05949826,0.006062916999999999
-0.01941484,-0.03622251,-0.01204925
0.0027273909999999996,-0.01938027,0.00461578
0.01453685,0.01502847,-0.0035046820000000003
0.038156699999999995,-0.003964368,-0.0179667
0.01282334,-0.02407015,-0.02240111
0.03826014,0.01125371,-0.04732513
0.1034221,-0.02799603,-0.05407616
0.0233627,-0.02622481,-0.04115295
0.06106963,0.02779451,-0.008840652
0.09079758,0.03718928,-0.02960892
0.1469457,0.01079052,-0.02171432
0.08249287,0.02157691,0.0004345737
0.04787399,0.04743172,-0.01747857
0.04001207,-0.009574592,-0.02760306
0.04225925,0.02916227,-0.02714066
0.02831644,0.009194189,-0.03284674
-0.01284219,0.03956734,-0.004502107
0.007076314,0.07240701,-0.007184613
0.0032772340000000004,0.02873103,0.01553113
0.002984534,-0.03372978,-0.005188901
0.01459534,-0.04170136,-2.157059e-05
-0.03055058,0.0006188433999999999,0.01065983
-0.01130845,0.01421724,0.01135671
-0.02310313,-0.02668035,0.03473564
0.003370365,0.002804446,0.0062575109999999995
-0.006232196,-0.02228159,-0.04119586
-0.0304613,-0.004909075,-0.00798119
-0.04027366,0.02759314,-0.01025389
0.01090564,-0.03787199,-0.01065478
0.03432695,0.01414901,-0.003352364
0.01038436,0.04101206,-0.0008012159
0.02272481,0.05927461,-0.01155772
0.01969553,-0.006333835,0.0023794289999999997
-0.00755599,0.07349703,-0.03231803
-0.04631426,-0.009137364,0.03583441
-0.06480549,0.01530133,0.05287428
-0.06658321,0.12110370000000001,0.04927218
-0.03261684,0.1025579,0.02946432
-0.053087699999999995,0.006481179,0.04282871
-0.02444049,-0.01624634,0.04429381
-0.05905967,-0.01965828,0.028831299999999997
-0.051820000000000005,0.02964851,0.04008391
-0.01106129,0.04146564,0.03063271
-0.01142625,-0.0047594759999999995,0.0005632471
0.02123103,-0.02784945,-0.01031423
0.00212943,0.001638742,0.01359659
0.01540193,-0.005978334,0.03103069
0.0323486,0.02322805,-0.005242027
0.08197507,-0.08118389999999999,-0.02740494
0.06798532,0.03961929,-0.005728156
0.06723168,0.04905505,-0.004712597
0.02297468,0.1186848,0.03340599
0.07945077,0.1822332,0.01802596
0.02063493,0.18477220000000003,0.02608342
0.03695492,0.0882905,0.01185109
0.02142674,-0.02666221,-0.04505175
0.07598503,-0.17852,-0.1090343
0.05907349,0.09868444,-0.12530940000000002
-0.06419346,0.0001383257,0.0011115930000000001
-0.02595641,-0.030335300000000003,-0.004527125
-0.0249989,-0.2752182,-0.04295993
0.01242911,-0.1516142,-0.05743829
0.02162325,-0.04453964,-0.06722291
0.02769924,-0.10147300000000001,-0.05990924
0.01435234,-0.0939206,-0.01484684
0.02092769,-0.04645263,-0.06276002
-0.06610561,-0.02727222,0.0005470868
-0.008888224,0.006881821999999999,-0.02831661
-0.110802,0.02874209,0.05677911
-0.03899724,0.04694828,-0.05264902
-0.01007194,0.07549360000000001,0.03273294
-0.03951418,-0.025231599999999996,0.01044757
0.03449407,-0.1055261,0.003083264
-0.00126198,-0.0797105,-0.003692665
0.0362202,-0.05131532,-0.0310144
0.03452336,-0.06300785,0.04201028
0.03938178,-0.1232501,-0.004127575
0.05544738,0.008375109,-0.01335764
0.004488107,0.04918772,0.02051445
0.03943285,0.07060326,0.06176589
0.03666984,0.23683579999999999,0.06780434
0.05783791,0.1050695,0.06138302
0.02945483,-0.06861845,0.04557966
-0.003061108,-0.08696957,-0.0387446
0.0270404,-0.02940274,-0.03327466
-0.01750899,0.03811765,-0.014260499999999999
0.03110806,-0.03656697,-0.03465658
0.03534538,-0.01519601,-0.06713437
-0.04699666,0.06661441,-0.05304181
-0.060353,-0.01141305,-0.05093419
-0.06042052,0.004558779000000001,0.007983576
-0.04729899,0.07070383,0.03845359
-0.01607812,0.02981288,-0.002880984
0.01741661,0.0007424167999999999,0.02024507
-0.02525449,-0.01850967,0.003136774
0.005043993,-0.008784222,-0.019687599999999996
0.01317708,-0.008770779,-0.007874358
-0.04570739,0.0408981,0.0521095
-0.03534537,0.02530497,0.03736744
-0.05408242,-0.01245218,0.01083412
-0.06805529,0.02464284,0.00911747
-0.0288392,0.02990651,-0.02309665
-0.04054945,-0.03926736,0.00229283
-0.01257173,-0.11349289999999998,-0.0380589
-0.04761825,-0.03765281,0.04670919
0.02938894,0.01764623,0.0001312285
0.05523937,0.04149437,-0.004321381
-0.009227404,0.02839062,0.006384993
0.002047897,-0.06411551,-0.02931574
-0.00016809580000000002,-0.05727166,-0.0161412
0.01482967,-0.11886789999999998,-0.0379126
0.07708225,0.009110734,-0.037328
0.04003432,-0.03690242,-0.0071509830000000005
0.08286652,-0.01631203,-0.02465055
0.03152122,0.0033110279999999997,-0.02092555
0.01864826,0.12341789999999998,-0.00850207
0.03513413,0.10849860000000001,-0.03946152
0.01789233,0.03400802,-0.03403201
0.0009217225,0.028103899999999998,-0.11654
-0.04950605,-0.1203509,-0.11847460000000001
-0.03626129,-0.1586183,-0.1018674
-0.1080761,-0.1756481,-0.04522831
-0.04843301,-0.07695318,-0.01410428
-0.07816368,-0.028958799999999996,0.01550388
-0.002260817,0.01159683,0.001234881
0.004370928,-0.03443407,0.01723257
0.04527562,-0.005327903,0.01448422
-0.01878283,0.048298400000000005,0.03815657
0.05338060000000001,0.08341404,0.06586935
0.029332499999999997,0.1155128,0.05875055
0.01398486,0.10718889999999999,0.03852386
0.006517492,-0.0008454239,0.03496778
0.03501914,-0.09066498,0.02712929
0.03151359,-0.10355810000000001,0.01535176
0.01618491,-0.02461712,0.03236249
0.01580297,0.006317668,0.05930872
0.05086259,-0.04906686,0.04461922
0.02483659,-0.05591798,0.04808436
0.02485639,-0.09000581,0.05527649
0.007094382,-0.05876515,0.02277672
0.0088425,-0.04529839,0.02463287
0.003006784,0.01024366,0.01657622
0.07442577,0.07810471,0.02120994
0.00666962,0.1073127,0.06120019
0.02472508,-0.05149447,0.01921964
0.03572313,-0.0910276,0.02631535
0.007694667,-0.03629772,-0.01645081
-0.02339801,-0.03098985,0.01431937
-0.05191399,-0.03442362,0.05256941
-0.03512422,-0.03189307,0.03664969999999999
-0.0329443,-0.07542996,0.009876033000000001
-0.11505919999999999,-0.09153468,0.005116870999999999
-0.1252444,-0.0391823,-0.001617994
-0.06970283,0.003174448,0.003564462
-0.09611057,0.08334352,0.03563675
0.01100877,0.1311675,0.06268502
-0.08967923,0.032297700000000006,0.10365830000000001
-0.04234063,-0.04345984,0.07197452
0.007768788,-0.06942293,0.02650006
-0.05630887,0.01228863,-0.04749209
-0.02428678,0.08976065,-0.03732648
0.01951763,0.07388186,-0.02801333
0.0247951,0.09876826,-0.051049300000000006
0.02928658,0.02458851,-0.01726317
0.02771059,-0.07380413,-0.06666177
0.06792173,-0.1036411,-0.09992576
0.04223429,-0.05374057,-0.10434369999999998
0.06942748,0.02274225,-0.1214435
0.09042396,0.03531673,-0.02287929
0.06974910000000001,0.04631437,-0.006686539
0.12519059999999999,0.03060142,-0.007347653000000001
0.06640742,-0.02254129,-0.04210396
0.09271136,-0.00329221,-0.04674333
0.02090501,0.003884383,0.00568665
0.02072147,0.01822975,-0.0005080053
0.0236634,0.05448106,-0.008201881999999999
-0.02743777,0.03350897,0.04885603
-0.01290601,0.03195397,0.007627136
-0.007386028,-0.01054004,0.006685914
-0.10425919999999998,-0.03714905,0.03988064
-0.03561319,-0.0596763,0.02746094
-0.08450595,-0.04271593,0.04258988
0.01027546,-0.06418891,0.004991729
0.002888468,-0.05830264,-0.01365346
-0.02930395,-0.03569178,0.01632546
-0.00036390449999999997,0.02306098,-0.02634464
-0.01149666,-0.01384104,0.00376335
-0.03743659,-0.006237134,0.02280339
0.00023692290000000001,-0.03201345,0.02088372
-0.02758177,-0.01164275,0.01740887
0.01053903,0.02162232,0.01558104
-0.05068425,-0.001052378,0.02376341
0.05998823,-0.05757794,0.04107707
0.04790954,-0.01683586,0.032332400000000004
0.03184219,0.03040605,0.01470944
-0.008631264,-0.001793319,0.04590856
0.053701599999999995,-0.04367849,0.01328193
-0.01757373,-0.03477583,0.02659051
0.01728544,-0.004271947,0.03409208
0.011749200000000001,-0.02161316,0.02522162
-0.01321363,-0.03592457,0.03955055
-0.02978887,-0.06747192,0.03862645
-0.01155787,-0.07196717,0.01728826
0.0011491210000000001,-0.0400251,0.007911326
0.006541316,0.00031831299999999997,0.01061372
-0.02148956,-0.01175471,0.03236479
-0.05454314,-0.002410939,0.02484624
0.007691211,-0.0100292,-0.02188298
-0.01971466,-0.004632465,0.004568778
-0.02621471,-0.03721501,0.007909869
-0.05261896,-0.03221776,0.008590997
-0.06782155,-0.01883567,-0.01836281
-0.03133661,-0.007776096,0.004071509
-0.02871282,-0.03820307,0.03903994
-0.005576971,0.02543801,0.01394031
0.06786265,0.06204015,0.006396286
-0.02821567,0.11287509999999999,-0.01953346
0.02934085,-0.023144,-0.02831049
0.02266736,-0.15072220000000003,-0.11023250000000001
0.04767177,-0.03317077,-0.12808239999999999
0.01267628,0.15535179999999998,-0.06458072
-0.03386193,0.184329,-0.03460867
-0.05464659,0.05154007,-0.02173261
0.03260406,0.005262785,-0.07332189
0.02567667,0.04103988,-0.0694712
-0.04473272,0.07013143,-0.02083923
0.01624212,0.07984207,-0.01564736
0.02010112,0.01962697,-0.01241614
0.02932294,-0.03627489,-0.0204156
-0.05775905,0.05427080000000001,-0.01199931
-0.04998627,0.0809655,0.0373051
-0.04040077,-0.02761573,0.07097699
-0.06599719999999999,0.02681189,0.11005670000000001
-0.07796621,0.01709436,0.1362472
-0.04425117,-0.0657059,0.07720142
-0.01023373,-0.1283221,0.03561392
-0.01219074,-0.1390217,0.01448392
0.016857499999999997,0.002574809,-0.009031743
-0.006894105,0.05053794,0.0007183383
-0.03129755,-0.02874204,0.03739702
-0.01292182,-0.06564137,-0.05931468
0.01025185,-0.05114111,-0.04808207
0.08178099999999999,0.04319134,-0.0806982
0.05059976,0.1108994,-0.02648798
0.05105361,0.08760217,-0.0495274
-0.02721396,0.04865572,-0.02774125
0.04580567,0.14043920000000001,-0.04867127
0.02801507,0.02250329,-0.02269086
-0.08281156,0.09590733,-0.09164155
-0.05837993,0.04368673,-0.1313165
0.02658328,-0.06046247,-0.1495404
0.03291516,-0.07159141,-0.11552269999999999
0.04384349,0.1533274,-0.04679252
0.02104182,0.15532720000000003,-0.007944548000000001
0.05180254,0.18418470000000003,0.02873444
-0.03348599,0.08364989999999999,0.08359905
-0.01002466,0.01687726,0.06103204
0.02629478,-0.07180311,0.04785461
0.006253965,-0.01711273,0.04360192
0.02932751,-0.116427,0.04013488
-0.01105747,-0.1711567,0.04591683
-0.01555462,-0.1164662,0.006926959
-0.00866927,-0.21377159999999998,0.08305918
0.04632035,-0.04937729,0.11355710000000001
0.04740866,-0.05129707,0.08698777
0.03472073,-0.07225549,0.10124630000000001
0.01108371,-0.19163670000000002,0.08798879
0.0945369,-0.16297779999999998,0.02758123
0.02466012,-0.03550855,0.09699369
0.01470549,0.006164246,0.05312752
-0.008068485,-0.07585033,0.08991696
-0.003529547,-0.07053223,0.02762625
0.04324215,0.09069527,-3.929157e-05
-0.007987798,0.17983670000000002,0.05879531
-0.006426217,0.1083528,0.0698088
0.07070132,0.007541157,0.02390057
-0.02711031,-0.04442588,-0.02408622
-0.0470026,-0.0121242,-0.02948756
-0.01162727,-0.0066958040000000005,0.0017441079999999999
-0.07001899,0.02216101,-0.005620193000000001
-0.05803445,0.05365618,-0.01318113
-0.01084036,0.05574666,-0.04911564
-0.02439162,0.07186329,-0.03309134
-0.06619453,-0.08508454,-0.01752476
-0.03556686,-0.06143141,-0.07651536
-0.05414665,-0.01732948,-0.05245822
0.01881094,-0.05929545,-0.02559049
0.00926017,-0.03624233,-0.02637809
-0.01426022,-0.03240246,-0.01911424
-0.02669599,-0.003674963,0.02889878
0.002210356,-0.02783276,0.01613335
-0.02727886,-0.04818615,0.03037802
0.02063709,0.04563914,0.00367411
-0.01655306,-0.02516647,0.01896588
-0.01271361,-0.008635894,-0.03729126
-0.05690206,-0.008260336,-0.04134591
-0.05735309,0.02753072,-0.04526353
-0.02478916,-0.01513182,-0.03351354
-0.009648567,0.04528005,-0.07052341
-0.02267072,0.09932096,-0.0247729
0.01475078,0.08506408,-0.04220697
0.07076821,-0.005460191999999999,-0.04393909
0.008675162,0.00504631,-0.06315331
0.02599221,-0.02041407,-0.04294938
0.05847732,0.00260809,-0.03475934
-0.01354744,0.05153717,-0.03288586
0.01293086,0.039856199999999994,-0.0192423
0.04775979,0.02772034,-0.01691362
0.01160487,-0.0037923859999999996,0.008590767
0.04875118,0.0119534,-0.006618909
-0.007825499999999999,-0.03054877,0.0463706
0.03515018,-0.07534562,-0.01647959
0.03105984,-0.02356934,0.003182378
0.03435901,0.02133554,-0.0032683990000000004
0.009475281,0.03154552,0.01295353
-0.007728194,-0.01735592,0.03963399
-0.01150187,-0.01020417,0.01321713
0.00718987,0.08149756,-0.004385649
-0.02821156,0.03008119,0.02698709
0.003288385,-0.02470561,0.04600422
-0.01696812,0.00845864,0.04514728
0.022953099999999997,0.004042167,0.01543712
0.01353049,-0.04611314,0.03289199
0.001021814,0.02613557,-0.02422882
0.05048455,0.01222581,-0.02190948
0.0007161655999999999,0.04626039,-0.01520199
0.03980477,0.03034164,-0.01988863
-0.005992243,-0.02455753,-0.006953744
