Acc_x,Acc_y,Acc_z
-0.015600799999999998,-0.0060527919999999995,0.03409116
0.01271815,-0.03293877,0.0068568480000000005
0.0376999,-0.03475786,0.00021588150000000002
0.00494046,-0.02030321,0.03326518
0.01133431,-0.05078892,0.02621664
0.05153384,-0.08098212,-0.00305364
0.006616543000000001,-0.03791353,-0.002745318
-0.03310066,0.05092346,0.03936619
0.03117541,0.051643100000000004,0.02145937
0.03945713,0.02364551,-0.004453724
0.04734478,0.05463365,-0.03904714
0.03246461,0.02663367,-0.01409267
0.06636638,-0.04930049,0.002967522
0.0011114410000000001,-0.02775304,0.03292684
-0.0005117904000000001,-0.02335071,-0.0052088740000000005
-0.004297172,-0.004174687,-0.02458785
-0.009399661,-0.048006099999999996,0.02697487
0.05905918,-0.004546078,-0.02780154
-0.001143781,-0.05444193,0.06497861
0.05708545,0.07822992,0.01275403
0.03621475,0.03858789,0.005620699
0.01614381,0.01633049,-0.02348512
0.01658658,-0.0403196,-0.01388988
0.03683924,0.02580885,-0.03456046
0.04229198,-0.01336767,-0.04006084
-0.03165137,-0.003248714,-0.008426227
-0.03388893,-0.0033313179999999998,-0.01076616
-0.009220492,-0.08484302,-0.02304068
-0.05245418,-0.07811571,-0.002176226
0.02791958,-0.0451834,-0.04844715
-0.03414357,-0.02675807,-0.02436602
0.04127841,0.01240811,-0.02108066
0.03325648,0.02140419,-0.02408107
0.02122633,-0.006785751,-0.02318918
0.00319326,0.06401747,0.002664005
0.02658589,0.03791953,0.03558481
0.05618669,0.02066588,0.001164516
0.06191466,0.04528563,-0.002910111
0.008283460999999999,-0.04327839,0.03503437
0.0170889,0.01853729,0.01788775
0.01020432,-0.002783152,0.03801772
-0.0261567,-0.05619805,0.05006608
-0.015402500000000001,-0.04783541,0.03024976
0.01773912,-0.05906602,0.0028501729999999997
-0.02076824,-0.05359419,-0.00704887
-0.02563111,-0.01356727,0.0013756920000000002
0.01331486,-0.02653611,-0.01888877
0.03098965,0.03146054,-5.3448599999999995e-05
0.004954007,0.03505235,0.01215424
0.02541557,0.04953047,-0.01453531
-0.01021572,-0.03358239,0.03230844
-0.03806938,-0.04520133,0.01875238
-0.03181863,0.005441634,-0.01790069
-0.02314891,0.01217347,0.006512859
-0.006971247,-0.02550551,0.006245071
-0.03803764,-0.01741148,0.009373198000000001
-0.02108324,0.01720381,-0.01105369
-0.03053192,-0.02526444,0.03068986
-0.01211921,-0.01027836,0.02535516
-0.02014541,0.03685414,0.023711799999999998
-0.06671368,0.003545344,0.01405121
-0.030126,-0.01417265,0.01534263
-0.008137766,-0.03537448,0.0288998
0.0010280180000000001,0.06182801,0.03758607
-0.007752359,0.08348565,0.01150888
-0.01666753,0.02378919,0.02905236
-0.00037650739999999997,0.01955776,-0.01626641
0.01740382,-0.01061089,-0.05032214
0.04194166,-0.02408613,-0.01619296
0.01220921,0.02650109,0.002652324
0.03163635,0.04672122,-0.02676618
-0.01521022,-0.08439675,0.01416586
-0.03889718,-0.08371402,0.01417704
0.06291725,-0.03175632,-0.01739598
0.02909843,-0.04361606,-0.01492751
0.05639396,0.002949892,-0.01701486
0.03579227,0.01140859,0.001163947
0.01040186,0.00772883,0.01857734
-0.01090537,0.05727056,0.0146954
0.01905008,0.02090579,0.017002200000000002
0.04657998,-0.0018817320000000001,0.007744653000000001
0.06534991,-0.0224563,-0.02189104
0.01721783,-0.03596598,0.01096628
0.03533778,-0.10442960000000001,-0.04588584
0.1029374,-0.09363315,-0.10658789999999999
0.03430371,-0.01016258,-0.04788655
0.02745217,0.002796404,0.00452063
-0.05454724,0.01177371,0.06412212
-0.06781366,0.08277929,0.07912099
-0.009069612,0.05817962,0.09414111
-0.007891884,-0.1023367,0.05671327
-0.0345713,-0.1444528,0.005835583
-0.03877452,-0.022771700000000002,-0.02869698
0.0038823340000000003,0.06711209,0.02635721
-0.05443447,0.09942489,0.04325787
-0.00596134,0.1772681,0.06135773
-0.04620093,0.3159112,0.04877864
0.04517978,-0.02706084,-0.08724357
0.01998305,-0.1153886,-0.14784070000000002
0.005791098000000001,-0.03233455,-0.14947190000000002
0.05828519,0.03375488,-0.1274545
0.007052409,0.1298507,-0.06209274
-0.03481087,0.1009826,-0.01643939
0.052281100000000004,-0.042772199999999996,-0.1015925
0.03185539,-0.09538266,-0.12370739999999998
0.01400794,-0.1077048,-0.1668474
0.004338128,0.1452225,-0.04156921
-0.05588305,0.1151586,0.02585205
-0.0379326,0.01477279,-0.03803211
-0.06541297,-0.07596075,-0.02915281
-0.05794296,-0.02759731,-0.002624661
-0.03814844,0.04870569,0.03304596
-0.06604505,0.12163139999999999,0.08222508
0.01320404,0.05710655,-0.0251309
-0.02840719,-0.03095369,0.04688405
0.006281834,-0.07577935,0.01501607
-0.02466847,-0.05734047,-0.05998819999999999
-0.0051779,0.001126416,0.01001138
-0.01034974,-0.004396764,0.004373033
-0.08863129,-0.06715819,0.03127572
0.0007285939,-0.06298992,0.01683177
-0.008113148,-0.05474,0.005927529
-0.01730418,-0.127833,0.02383763
0.0187239,-0.05392805,0.005500694
-0.0562683,-0.03449935,0.0232596
0.03833232,-0.02162401,0.04202382
-0.01769902,-0.08018659,0.07384298
0.1349931,0.0005872957,0.18043470000000003
0.1215897,0.008541964,0.1891349
0.20771689999999998,-0.0301402,0.1721259
0.2550774,-0.04463678,0.16329739999999998
0.2291244,-0.08097959,0.05852313
0.2028677,-0.140284,0.08393688
0.15466270000000001,-0.08483685,0.04608574
0.12509489999999998,-0.01408908,0.01920895
0.01829565,0.08265835,0.01756029
-0.00390091,0.08823115,0.01999006
-0.008668703,0.03416492,-0.09020336
-0.15970079999999998,0.02316741,-0.10861130000000001
-0.2313672,0.1423627,-0.09798399
-0.28736609999999996,0.1337359,-0.11032570000000001
-0.33211809999999997,0.141833,-0.07775528
-0.26599809999999996,0.09962523,-0.10026669999999999
-0.2629538,0.02129776,-0.06513976
-0.21609130000000001,0.01388922,-0.08220856
-0.190143,-0.006222146,-0.06066189
-0.138445,-0.02039895,-0.04179239
-0.00613842,-0.09130813,-0.03692107
0.01851282,-0.08020468,-0.04299647
-0.04972396,-0.04280292,0.005965112
0.0178553,-0.06862309,0.01811805
0.03446826,0.03537737,0.03181702
0.03897471,0.01232352,0.04527339
0.01406465,-0.03334648,0.04620401
0.04523009,-0.06219802,0.01636997
0.07462846,-0.06359354,-0.01205504
0.02753851,-0.03636222,0.01416266
0.01622974,-0.02487605,0.02364743
-0.08238345,-0.03609527,-0.01675496
-0.12468499999999999,0.03986641,-0.03879239
-0.114854,0.08991631,-0.01578131
-0.1530433,0.12184369999999999,0.04220929
-0.09988489,0.06423919,0.04651187
-0.11819160000000002,0.03013725,0.05346588
-0.1265294,-0.02682206,0.02922765
-0.10376279999999999,-0.005777905,-0.01714758
-0.14742,-0.00022609439999999998,-0.03011473
-0.08052050000000001,0.02382717,-0.0218452
-0.06239451,0.03132891,-0.001755083
-0.05509686,0.01384132,0.029430500000000002
-0.01331101,-0.04544432,-0.003686473
0.07256759,-0.04922555,-0.0054228769999999996
0.05759088,-0.03067148,0.009725375999999999
0.11956359999999999,0.006606236,-0.00997667
0.1508505,-0.05557802,0.006042704
0.1190351,-0.04840818,0.01304708
0.1403845,-0.04328677,-0.0002097338
0.1289605,-0.05624128,0.008065801
0.1653842,0.01277313,-0.0004443452
0.11521469999999999,0.01920233,0.03610277
0.1642171,-0.00103367,0.03877401
0.1423338,0.005731005,-0.01437722
0.1359481,0.01892071,0.01429223
0.052221000000000004,0.04966791,0.0569391
0.03087522,-0.02399533,0.07598409
-0.0036419029999999997,0.0025273170000000003,0.05448229
0.02824143,-0.03678983,0.04189158
0.03231407,-0.01738686,-0.007675105
0.04797925,-0.01621192,-0.01722709
0.016416200000000002,0.0009810477,-0.02924044
0.0361469,0.03947782,-0.0148893
0.04681859,0.02838772,0.0006475095
0.03392171,0.05634490000000001,0.008541927
0.07099898,0.01699918,0.0030418470000000003
0.005199736,0.0288163,0.01106874
0.05248816,0.01523046,-0.01448689
0.01828863,-0.03326296,-0.001185134
0.005279811999999999,-0.0060315690000000005,-0.00820463
0.02668203,-0.009892235,-0.004949509
0.0375365,-0.01385684,0.003502237
0.01299838,-0.07397871,0.01359408
-0.008336199,-0.04557807,0.03827047
-0.01643294,-0.01405936,0.01617007
-0.04699265,-0.07759812,0.0436892
-0.05964598,-0.03082635,0.02591117
-0.04715457,-0.03842529,0.01383712
-0.007425555,-0.025757099999999998,-0.01052386
-0.02540829,-0.02331017,-0.01371417
-0.07100684,-0.01596351,-0.003727473
-0.0448278,-0.03715084,-0.009329755
-0.08295945,-0.05396061,0.005735997
-0.02331931,0.03176195,-0.02051933
-0.03099977,0.0237524,-0.04149999
-0.01417849,-0.006287043000000001,-0.0041722059999999995
-0.008822324,-0.03887553,-0.023719999999999998
-0.0113667,-0.02183532,-0.02777178
-0.07160266,-0.01815448,-0.01101884
-0.08202363,-0.05522101,-0.01886891
-0.08516116,-0.08733048,-0.01550681
-0.01539326,-0.01342219,-0.01700359
0.01694551,0.03564188,0.01118425
0.05607954,0.10247089999999999,0.005636565
0.08874432,0.10159019999999999,0.01044681
0.03840601,0.02613512,0.01409805
0.06708628,0.01985236,0.01199485
0.01412153,0.1014794,0.01808386
0.04360213,0.08690888,0.0046335659999999996
0.03348441,0.05787206,0.01355834
0.01493004,0.07118101,-0.01194971
0.03174569,-0.008562893,-0.03546622
0.05774159,0.004011333,-0.028321499999999996
0.04018462,0.04036007,-0.005000377
-0.0006395839,0.004930701,0.034474
0.03574691,0.003126286,0.01152017
0.03144254,-0.03399372,0.02102856
0.005222104,-0.08266947,0.04143317
-0.0009669941,-0.11755839999999998,0.06799896
0.02323711,-0.08957688,0.05741449
-0.02918698,-0.14356570000000002,0.05041296
-0.03981453,-0.02397511,0.0300365
-0.07189099,0.04651079,0.01951052
-0.06370644,-0.06067801,0.0603331
-0.05925877,-0.08516666,0.05992722
-0.1043944,-0.0030720609999999996,0.06401257
-0.08577742,-0.01245894,0.05577344
-0.06253142,0.033663900000000004,0.025547999999999998
-0.004853372,0.07779193,-0.02054615
0.04845592,0.12037750000000001,-0.01927819
0.02091053,0.09437683,-0.009903293
0.02376478,0.09165689,0.004396622
0.06685314,0.09542663,-0.03829317
0.08402444,0.03548853,-0.08567137
0.026021,0.01952158,-0.07343055
-0.01259558,0.10158049999999999,-0.06484063
-0.02118158,0.08033709,-0.01542144
0.03070825,0.0995602,-0.05960084
0.03533716,0.1014939,-0.03510927
0.02554785,0.03980746,0.04237379
-0.0245733,-0.21225679999999997,0.07586122
0.01298346,-0.1632329,-0.09464459
0.03981161,-0.1661199,-0.08658698
-0.03849348,-0.04731211,-0.093263
0.01477207,-0.08424748,0.04212371
-0.04607242,-0.1093007,0.02216298
-0.032075099999999995,-0.2042369,-0.02845616
-0.04806567,-0.20774279999999998,0.006953776
0.001983097,-0.1286802,-0.08256164
-0.05177373,-0.0533696,0.02339982
-0.08753498,-0.07151909,0.02440723
-0.02495917,-0.06167329,0.01296174
0.001057341,-0.1186982,0.02330366
-0.009844675,0.009715727,0.05970965
0.01338941,0.06194679,-0.01204886
-0.01243853,0.0024033329999999997,0.0004961097
0.02206482,0.02005835,0.01511025
-0.0011657689999999999,-0.0002940353,-0.01348416
-0.0046067140000000005,0.03071199,-0.01773829
-0.06926267,0.06641483,0.03395716
-0.012156299999999998,0.1338194,0.03752656
-0.02271881,0.04723105,0.07103326
-0.07740031,-0.06533759,0.03251024
-0.0029416959999999997,-0.12269269999999999,-0.008588883
-0.01086329,-0.06380005,0.002902575
-0.02213904,0.08112004,0.05377887
-0.01492037,0.0161053,0.03829094
-0.02600553,-0.10478019999999999,0.03558714
0.04608079,-0.07961401,-0.01320315
0.01548172,-0.04489868,0.05401773
0.033429900000000005,-0.05475605,0.04838175
-0.020088400000000003,-0.01018284,0.08433058
-0.02848498,0.03430924,0.1011344
-0.04244388,0.003160139,0.02883613
0.03377372,-0.04102439,-0.01146069
-0.0030487929999999997,0.0008072200999999999,-0.03850261
0.04839953,0.03797432,0.005449463000000001
0.02305283,0.01910786,-0.01921108
0.09804959,-0.0148845,-0.05298150000000001
0.03643987,0.01102297,-0.0505406
0.05807634,-0.04347336,-0.1006847
-0.008627724,0.09175958,0.04173413
0.01709197,0.05800603,0.02944757
0.007594452,0.07438468,0.04566201
0.03127645,-0.04056554,-0.06033266
0.05181366,-0.04651027,-0.1011449
0.06862033,0.0001812167,-0.07330494
0.1382326,0.07105162,-0.03069658
0.1163827,0.1593983,0.009583021
0.06980368,-0.03242842,0.03111023
-0.04273505,-0.05939143,0.03711717
-0.03143253,-0.159615,-0.0250448
-0.09708571,-0.09745212,-0.04824596
-0.12042539999999999,-0.05686811,0.03951776
-0.01659225,-0.01188031,0.1020615
0.00525629,0.03770165,0.08593239
-0.02800055,-0.07834338,0.08941162
0.02897672,-0.1857303,0.03913582
0.05043469,-0.1711913,-0.04416473
-0.008377256,-0.12249700000000001,-0.009358782
-0.03606963,-0.01480783,0.04802211
-0.001041184,0.08349978,0.05223844
-0.04643013,0.05533729,0.04770732
0.03710559,0.01670213,0.02317981
0.01662901,-0.02601079,-0.01432605
0.0057396769999999995,-0.05496045,-0.04358919
0.04107516,0.09282857,-0.04926452
0.06653824,0.1927314,-0.04280332
0.08095653,0.1557318,-0.03308621
0.03083375,0.08877385,-0.04314104
-0.003660799,0.09886653,-0.07200778
0.03025305,0.01139526,-0.08429936
-0.01681305,-0.047475800000000005,-0.11149200000000001
-0.01851876,-0.03284269,-0.07495508
-0.02615927,-0.05088226,-0.08346879
-0.04655357,-0.01239692,-0.03295847
-0.0062452359999999995,-0.003137535,-0.03527395
0.02553306,-0.07986858,-0.04283093
0.04715747,-0.04890221,-0.04562555
-0.005645154,-0.01518964,-0.01291742
-0.005698897,-0.003357678,-0.0192474
0.03287929,0.02785196,-0.02419291
-0.02359895,0.03791979,0.01626168
0.01817898,0.04000714,0.01923227
-0.02202478,0.01821666,0.08761701
-0.04278575,0.0120487,0.08038582
0.009686155,-0.06241769,0.04030868
0.1281232,-0.06268318,0.02822613
0.1314308,0.01551582,-0.0037012209999999998
0.06231835,-0.004743707,0.03332449
0.12628810000000001,0.002881695,0.02743625
0.06850995,-0.02108871,0.03013548
0.03927026,0.03548443,0.004669935
-0.02481387,-0.0027502159999999998,-0.01446546
-0.06080614,-0.01451212,-0.01757071
-0.08412227,0.004791219,-0.003614884
-0.08177865,-0.01595899,-0.03563342
-0.08991403,0.007631336999999999,0.004874906
-0.13032280000000002,-0.01856632,0.02112992
-0.07668707,0.008572757,0.03011063
-0.09870144,-0.006688155,0.06369415
-0.04535686,-0.01173008,0.01458267
-0.07596716,-0.04576682,0.0286665
-0.08576326,0.04188497,0.02330485
-0.11901010000000001,0.01557539,0.02231791
-0.01463685,0.07384059,-0.0033998979999999997
-0.0175164,0.01369663,0.01248212
-0.008294758000000001,-0.04218645,-0.02751312
-0.01122998,-0.01092511,-0.006723666999999999
0.06278445,0.009390143,-0.06307986
-0.02385999,0.02913355,0.003510304
0.03620016,-0.03889954,0.01096042
0.04452867,-0.08561774,-0.01432432
0.07999645,-0.03329181,-0.04281868
-0.02111588,0.03042666,-0.02681907
-0.002998421,-0.013775899999999999,-0.01401521
-0.01116217,-0.0002128943,-0.008338591
0.007418818000000001,-0.01568912,-0.005624594
0.03133645,-0.05091972,-0.01464223
0.02377775,0.03214075,0.006480726
-0.05283875,9.867921999999998e-05,0.01841403
0.02272952,0.0007114885000000001,0.001561122
0.03679027,0.0438487,-0.0052848159999999995
-0.01199789,0.0465659,0.02317584
0.038351199999999995,0.0038507259999999996,0.01638881
-0.06315438,-0.009229728000000001,0.02258434
0.02575262,0.02898414,-0.001241529
-0.00133705,0.02827759,0.004639883
-0.01687948,0.05361694,0.03282629
-0.0004116036,-0.02015362,0.04665751
0.04059047,-0.03507669,0.007431727
-0.01411007,-0.06296153,0.05375398
0.01893342,-0.03486004,0.003734291
-0.02399894,-0.02257072,0.03317785
-0.01048764,0.009571292,0.02810021
-0.009709327,0.01195901,0.02109775
-0.002434566,-0.004487487,0.01896312
-0.02821069,-0.0689909,0.01312571
-0.02623345,-0.1050556,0.02549921
-0.003543331,-0.1253428,0.0073552240000000005
-0.08978333,-0.014397499999999999,0.03413630000000001
0.01346496,-0.02845452,0.01232855
0.03208517,-0.03243755,-0.0014935789999999999
0.03299835,-0.02909105,-0.01249139
0.05822501,0.05467816,-0.02679504
-0.02292412,0.01613448,0.0535322
-0.01084572,0.06252292,0.04842394
-0.02114125,0.05267486,0.03885955
0.03145361,0.07075787,-0.01407647
0.01245783,-0.03734636,-0.06443322
-0.03116292,-0.042675199999999996,-0.04385839
-0.004805608,-0.01229353,-0.04783655
-0.02224213,0.06735357,-0.04563549
-0.01366955,0.09603161,-0.04625752
-0.02680625,-0.0334341,-0.07120462
0.03754376,-0.07925809,-0.07754566
-0.02313168,-0.06326377,-0.0705567
0.02922811,-0.00915395,-0.03631357
0.03010919,0.05222001,-0.03446567
0.01407395,0.050625,-0.0231044
0.08079247,0.00518686,-0.009587043
0.02290713,-0.04577199,0.01947446
0.08859932,-0.03144431,-0.01260688
0.05079532,0.01682241,-0.0041939640000000005
0.02060284,0.02446457,0.01370933
0.03011418,-0.04723792,0.04402541
-0.03697592,0.02359995,0.07090518
-0.00040476019999999995,0.00013619940000000002,0.02978143
0.009866464,-0.02200955,0.06413358
0.0031918309999999996,-0.04636573,0.01014241
0.0059036719999999996,-0.01611721,-0.02029624
-0.02821517,0.03941825,0.005654428
-0.002571833,-0.01172615,0.01095934
-0.02217891,0.006235182,0.01250859
0.01041208,0.02864591,-0.01105716
-0.03654605,0.04124194,0.02583456
-0.06043588,0.03619437,0.03346462
-0.06923655,0.02369292,0.0244226
0.00715642,0.03252596,0.03307405
-0.05166741,0.06890214,0.01987912
-0.09149899,0.02587015,0.03975951
-0.04612824,0.151557,0.06322062
-0.08102832,0.11320230000000002,0.1043941
-0.0028484879999999997,-0.04744611,0.03445246
0.009386924,-0.02053773,-0.004081903
-0.01132167,-0.02295898,-0.02050951
-0.03667564,-0.07273414,-0.05439246
-0.04803026,-0.10505450000000001,-0.02805747
0.01915398,-0.1005706,-0.05527879
0.0532688,-0.04991224,-0.06065705
0.13080319999999998,-0.02831428,-0.06313696
0.02612632,0.0396514,0.05819971
0.09882136,0.07707974,0.04090336
0.04483879,-0.09885827,0.04210968
-0.03759237,-0.0804414,-0.0424596
0.06021245,0.1220606,-0.1036365
-0.02581286,0.09265088,0.009707376
0.03643374,-0.001206683,-0.1065191
0.03041461,0.01181021,0.01030421
0.03815404,0.1817164,0.04484475
0.01054485,0.05790329,0.01584266
0.002841604,0.03138478,0.02205671
0.03073652,0.04293318,-0.05052114
0.03413953,-0.08167436,-0.11654529999999999
0.02675821,0.006261919,-0.07343715
0.01991211,-0.03034286,-0.01184077
0.02126527,0.01669959,-0.003938802
-0.01782157,0.0069224659999999995,0.04013446
-0.07413507,-0.01652781,0.05008593
-0.03372256,0.000550488,0.0020755079999999998
-0.02235487,-0.07142951,0.03100297
0.03545305,-0.14131329999999998,0.004101175
-0.01920055,-0.14634360000000002,0.02829531
-0.02478593,-0.09607018,0.03243091
-0.06215126,-0.0030223579999999997,0.08920786
-0.01443612,-0.0551144,0.09433925
-0.01599142,-0.05054295,0.09159064
0.01970923,-0.08559968,0.08132802
0.03974597,-0.08477260000000002,0.07308581
0.05218829,0.03398734,0.0444136
0.04276130000000001,-0.04249966,0.03055667
0.03102322,0.09291549,0.0725051
0.006059638000000001,0.1004987,0.0799752
0.03360919,0.03863674,0.06357615
0.03191299,-0.02251647,0.02025264
0.01570782,-0.1726373,-0.02385508
0.06393076,0.04039372,-0.03629762
-0.07753558,0.11096900000000001,0.04617845
-0.1408085,0.04757448,0.07210459
-0.08443611,0.08154403,-0.0029788429999999997
0.001128549,-0.04175635,-0.04784212
-0.09239076,-0.008688767,-0.08086087
-0.01285549,0.001162682,-0.06355619
-0.02832907,0.05149231,-0.03897872
-0.003770849,-0.00581266,-0.05101967
-0.01910307,0.05120867,-0.029817700000000003
-0.04207745,-0.01814592,-0.03715171
-0.05441277,0.01843817,-0.07146221
-0.05331457,-0.04647558,-0.02349761
-0.008964615,-0.06847388,-0.04979343
0.005688073,-0.07905007,-0.05888834
0.06444562,-0.001029639,-0.07388349
0.002858709,0.03906262,-0.002217284
0.01124271,0.008989575999999999,-0.002549294
0.04184457,-0.03245192,-0.05434211
0.009362715,0.06783165,-0.04324096
-0.01905151,0.1204616,-0.01131993
0.04818796,0.06077793,0.004498943
-0.008099558,0.05153046,0.02634392
0.06516116,0.003916278,-0.006604188
0.04434256,-0.04009124,-0.005410446
0.03410885,-0.02112343,-0.008809101
-0.001083388,0.02341131,0.006710613000000001
0.04831976,0.13839690000000002,0.004833152
0.06684411,0.11888519999999998,0.01155364
0.046370999999999996,0.05371183,0.01484838
0.03063023,0.001653586,0.00566213
0.01483661,-0.07446682,-0.03175974
-0.05352733,-0.09554452,-0.006295401
0.007270512,-0.04967697,0.001338107
-0.01626401,-0.1024308,0.02024965
-0.03810916,-0.05911239,0.046707099999999994
-0.007016025,-0.1183568,0.04341278
-0.0425619,-0.007697687,0.06013282
-0.02691326,-0.02075725,0.09307446
-0.06249312,-0.01901856,0.0965565
-0.01268825,-0.0842355,0.06870921
-0.06812838,-0.09486146,0.05836733
-0.01975792,-0.12117470000000001,0.05817004
-0.061327099999999996,-0.04683803,0.04506099
-0.02759092,0.01925831,0.02909292
