Acc_x,Acc_y,Acc_z
0.01138699,-0.01482678,-0.004509239
-0.04968637,-0.033515300000000005,0.02562012
-0.06482393,0.01593545,0.07172752
-0.01844999,-0.030776599999999998,-0.02150466
0.01118919,-0.07901562,-0.017250799999999997
-0.0061826680000000005,-0.08784775,-0.04855493
0.04937334,-0.02712872,-0.03200955
-0.02921356,0.02946564,0.002992915
-0.00646678,0.01616804,0.01163254
-0.04012595,0.0038379359999999997,0.02056472
-0.00474699,0.005236705,-0.0006420401999999999
-0.03882674,-0.009192833000000001,0.0124851
0.02881788,0.04739963,-0.03590219
0.06814004,1.6573820000000002e-05,-0.03410707
-0.02715807,0.02073042,0.01836737
0.05289708,-0.02546053,-0.03196329
0.001079514,-0.02220532,-0.02256499
-0.02528519,-0.02392136,0.0013208679999999998
0.003202828,-0.0009052502000000001,0.02215699
-0.01530533,0.002785883,-0.0034265359999999996
0.04125944,0.0199178,-0.02849979
-0.002270613,-0.03734909,-0.01047458
-0.009784763,-0.001798689,0.03422387
-1.647277e-05,0.04605896,0.01337734
0.03176212,0.04302212,-0.00210355
0.02830735,-0.004160905,0.0019221960000000001
-0.007127936999999999,-0.03779364,-0.02064222
0.02355706,-0.02745608,-0.03496101
0.0292452,0.04762851,-0.02201162
-0.02174732,0.08531381,0.001610446
0.0025994160000000002,0.05481973,-0.001048933
0.01294803,-0.04123726,0.003942518
-0.01627915,-0.08051349,0.03976853
0.01132828,-0.05020643,0.01999609
-0.007477131999999999,-0.01044569,0.02285095
-0.006075957,0.01808113,0.02794416
0.007217139,0.01330809,-0.01659284
0.0004853758,-0.007502468000000001,-0.008646918
0.001030852,-0.07626036,-0.001504294
-0.007800690999999999,-0.01741564,-0.0009601029
0.04520567,0.01069154,-0.01119342
0.03463587,0.06313401,-0.001598619
0.03764309,0.003000628,0.01767929
0.0820163,0.01166889,-0.009538153
-0.01572193,-0.01603036,0.04466444
0.04307009999999999,0.007450094,0.02352352
0.04660795,-0.05653487,0.0161998
-0.04337258,-0.007378463,0.11739069999999999
0.06246519,0.009506777,0.05040464
-0.04379958,0.11919020000000001,0.128676
-0.008196868000000001,0.05282733,0.09731364
0.01098631,0.001915401,0.09034902
0.04038159,0.02289395,0.03676698
-0.03334471,0.13333370000000003,0.1475332
-0.001004277,0.06999493,0.07198241
0.04777953,0.01102732,0.06728063
0.0008265749,-0.0158634,0.1395882
0.08837495,-0.09304225,0.07378509
0.10193730000000001,-0.187065,-0.03739471
0.26418020000000003,-0.3950845,-0.1208818
0.26477779999999995,-0.37002979999999996,-0.1026079
0.2309975,-0.2892033,-0.13518110000000003
0.13715729999999998,0.01316297,-0.1173405
-0.02686934,0.17251979999999997,-0.3136118
-0.13475209999999999,0.02325155,-0.231702
-0.20407479999999997,-0.1225122,-0.1926129
-0.22748179999999998,-0.1419656,-0.1071577
-0.250079,0.005732521,-0.001575008
-0.2502244,0.11250739999999998,0.0348483
-0.257589,0.2780989,0.15930070000000002
-0.2210947,0.3646143,0.163017
-0.2743546,0.188026,0.13109020000000002
-0.14746710000000002,0.04996509,0.01685277
0.002457305,-0.21929279999999998,0.02656172
0.0026779959999999998,-0.23876889999999998,-0.02820341
0.03458785,-0.08104582,-0.01218248
0.05927893,0.04167193,-0.03431954
0.03235287,0.05258426,-0.007474159
0.001328655,-0.06582098,-0.03119151
-0.03388274,-0.1267169,-0.01041849
-0.02295838,-0.21549400000000002,-0.02414036
-0.02420353,-0.08691083,-0.04585972
-0.01717315,-0.1356741,0.01572464
0.09149848,-0.12147709999999999,-0.005365178000000001
0.1015864,-0.1113999,-0.05330858
0.09762605,-0.06838633,-0.03233244
0.08282547,-0.07573426,0.01371843
0.05770232,0.02510123,0.05746248
0.05050226,0.1030625,0.0539529
0.04527881,0.10555899999999999,-0.002138431
0.03164425,0.09587172,0.01464901
-0.02219991,0.08420419999999999,-0.02394229
0.05696603,0.09269944,-0.04057192
0.06604843,0.09885843,-0.10613510000000001
0.08009182,0.05195341,-0.09675802
0.05650643,0.08427997,0.01028484
0.05366793,0.13682729999999999,-0.01920629
0.07852189,0.15629379999999998,-0.0115367
0.06351551,0.20391170000000003,0.01599044
-0.002952063,0.0602144,0.03222227
-0.06622946,0.04022736,0.02180973
-0.03837216,-0.04102691,0.009549875
-0.03605612,-0.01520307,0.006868098
-0.0440704,-0.02986926,-0.003005055
-0.0460027,-0.07395078,0.02581171
-0.009243096999999999,-0.13149129999999998,0.01100533
-0.009307537,-0.1365564,-0.007202861
-0.02540785,-0.108608,0.0062077040000000005
-0.016144,-0.1243349,-0.010276100000000002
-0.01902607,-0.1699276,0.05355854
0.02427446,-0.11796860000000002,0.01676608
0.04405291,-0.05912698,0.02138706
0.02885903,0.003882505,0.004177794
0.04665216,0.03018969,0.004581381
0.03398368,0.05702715,0.02129277
0.07637765,0.0077390969999999995,0.03047071
0.02691587,0.01669753,0.002395084
0.07274538,-0.04274127,-0.02026011
0.04088348,-5.112728e-05,0.00021437650000000002
0.07255817,0.05231453,-0.01198486
0.07725929,0.05084829,0.01437748
0.01381755,0.06865310000000001,0.02155716
0.01062062,0.05582967,0.05761965
-0.02201712,0.009266263,0.047609399999999996
-0.02567366,-0.007031264000000001,0.0347621
-0.0478734,-0.02924072,0.04899549
-0.04560523,0.03910024,0.03713803
-0.05453314,0.06615168,0.03950114
-0.03935296,-0.02313773,0.0663471
-0.04433655,-0.03997389,0.04002718
-0.04796146,-0.08872242,0.02209916
-0.07092934,-0.05241207,0.003480157
-0.05991575,-0.03595468,0.001644211
-0.05140062,-0.03362406,0.02079631
-0.06861708,0.06234524,0.01790632
-0.05338718,0.02257853,0.03197762
-0.02666165,-0.06659888,0.029905200000000003
-0.01099924,-0.04430958,-0.002950457
-0.03008273,-0.01423027,-0.04450891
-0.001144285,-0.008756131,-0.01066511
0.02327586,0.03384294,-0.03529419
-0.0056834319999999995,-0.01236833,0.004236838
0.03422154,0.01176739,-0.02931573
0.1001073,0.007683505,-0.07290076
0.02320593,0.0011513139999999999,-0.0289182
0.007864602,0.03719273,-0.05346714
0.08394392,0.002169779,-0.05335326
0.07777406,0.0003158469,-0.08559424
0.04548527,0.01478047,-0.05400902
0.03228816,0.01676905,-0.01951144
0.03443564,0.01780274,-0.03776174
0.03502348,0.008305027,-0.03076572
0.002029805,-0.003735589,0.004823674
-0.011827299999999999,-0.005875194,0.01169109
0.01167509,-0.03519342,0.005668935
0.02289202,0.0037206709999999996,-0.0229524
-0.0418459,0.01650849,-0.0003469307
-0.04040146,0.0075454319999999995,0.01072795
-0.06367352,0.01236248,0.005635658000000001
-0.04060204,-0.05625967,-0.00194531
-0.01465125,-0.04695871,-0.0046305520000000005
-0.03716266,-0.007734085999999999,0.0004624007
-0.05898946,0.01629673,0.01341682
-0.07162218,0.02316335,0.003603859
-0.04234753,0.01745599,-0.004830048
-0.004247843,-0.0153805,0.02439471
0.01535059,-0.01894522,-0.00236812
0.01155824,0.01221693,-0.0021493429999999997
-0.0027387590000000003,-0.04538244,0.04077324
-0.02707969,0.01680423,0.009321827
0.02204419,-0.02262579,0.03457433
0.02391753,-0.0075100290000000005,0.04289065
-0.01678967,-0.01706784,0.07888528
0.008682101999999999,0.01558965,0.04424741
0.01282819,-0.008107208000000001,0.02032266
-0.0214419,-0.04178703,0.05660165
0.02615292,0.04939399,-0.002332387
-0.005429475,0.005245019,0.04062754
0.05654696,-0.0381276,0.003361924
0.02169482,-0.04810026,0.004854528
0.008594777,-0.04681369,-0.01249542
0.01759515,-0.03465268,-0.008187359
0.004607201,-0.03802321,-0.0115417
-0.04396661,0.005940896,0.01469137
-0.01942359,0.0019506810000000001,0.03058838
0.02380117,0.002667405,0.05881518
0.02143771,0.05630734,0.03337137
0.01017521,0.05312281,0.02273363
0.02803956,0.03893401,0.04009123
-0.01931481,0.15337079999999997,0.05289442
0.02037609,0.1081825,0.04569224
0.06942379,-0.09114569,-0.05781351
0.04392309,-0.11085330000000002,-0.03259985
0.1059046,-0.2046729,-0.08745137
0.06212867,-0.07772929,-0.08698192
0.02455064,7.769465e-05,-0.02385108
0.009322137,0.004411745999999999,-0.05173041
-0.01345903,0.003791282,-0.05169036
-0.00969633,-0.006928734000000001,0.003068584
0.02049532,0.03624875,-0.01931413
-0.04403459,0.09479973,0.06980234
-0.015616499999999998,0.06523785,0.07994443
0.004601208,0.00955131,0.03663063
-0.02020337,-0.13006700000000002,0.02142943
-0.05868416,-0.18061470000000002,0.00785544
-0.01396811,-0.14085,-0.04144672
-0.05443548,-0.08430661,0.008183379000000001
-0.02111563,0.08191451,-0.0234255
-0.02986777,0.07467358,0.0041970209999999996
0.02932747,0.02825552,-0.02244522
-0.01295033,-0.042197000000000005,-0.01361497
-0.05142156,0.008463273,-0.01622327
-0.01014653,-0.03692559,-0.03347138
0.07896814,0.01976332,0.01835102
-0.01054959,0.19388239999999998,-0.01056104
0.01970833,0.18173,0.07093442
-0.05635058,0.3912842,0.1792345
-0.06349539,0.2108303,0.191672
-0.09199383,0.05453736,0.19384
0.03145082,0.02017343,-0.06618818
0.03499034,-0.08726999,0.03275868
0.07076429,0.006298929,-0.06599458
0.02272777,0.05920406,-0.03060989
-0.07800099,-0.08994132,0.08495905
-0.05943905,0.044375300000000006,-0.02958367
-0.03076995,-0.1870737,0.03178974
-0.0003950708,-0.15777660000000002,-0.07954225
-0.02833777,-0.1143126,-0.03680151
-0.02256279,-0.1298755,-0.06928148
-0.01999395,-0.165714,-0.11240739999999999
-0.03472866,-0.19550839999999997,-0.09921668
-0.05462322,-0.36115040000000004,-0.07876707
-0.05369439,-0.42423109999999997,-0.07694095
0.07522213,-0.19691889999999998,-0.02897019
0.1547323,0.04173529,-0.03476709
0.187747,0.2780523,-0.06773809
-0.1857019,0.433438,0.04965893
-0.31610229999999995,0.4064817,0.1576857
-0.21120370000000002,0.15980650000000002,0.1014774
0.15438949999999999,-0.1689796,-0.02934287
0.1273464,-0.1782652,-0.0640018
0.03191835,-0.3009547,0.02086517
0.03649122,-0.1248338,-0.1196858
0.004594479,-0.06137024,0.01624803
0.04100039,0.04359958,-0.05877484
0.07411511,0.0006159395,-0.01431324
0.06850281,-0.02994255,-0.001077745
0.06510144,0.0027548259999999997,-0.07479663
-0.007580676999999999,0.02213125,-0.03721256
-0.01637114,0.03875146,-0.05185346
0.05456511,0.04702248,-0.09653292
0.1001257,0.07435089,-0.08700469
0.09113532,0.1297487,-0.09992402
0.1021177,-0.006516695,0.0031551759999999996
0.04794399,0.1127368,-0.04155378
0.04024988,0.09901061,-0.02719943
-0.03831577,0.05704902,0.008297553000000001
0.009797635,0.06363173,0.03334134
0.02710087,0.07475574,-0.04238442
0.001035647,-0.02107326,-0.0033872740000000004
-0.0286808,0.024318400000000004,0.02136175
0.002166262,0.01573451,0.02732121
-0.05999381,0.008442134,0.07041284
-0.06995109,-0.0523408,0.03224998
-0.1056365,-0.003103249,0.08966956
-0.08582135,-0.002587275,0.009780308
-0.05173313,-0.03182409,0.04256045
-0.04925918,0.003253243,0.04062749
-0.0312395,0.005909246,0.00945231
-0.02234894,-0.1045124,0.02543205
-0.08275235,-0.09159379,0.05464293
-0.022223,-0.09914424,0.01513429
-0.03816862,-0.02591429,0.03447671
-0.009933184,0.0051678290000000005,0.01609956
-0.07478592,0.0580342,0.04603027
-0.01413701,-0.03564834,0.05531031
-0.004202661,0.0361473,-0.006784907
-0.02232904,-0.008798832,0.02268775
-0.02134926,-0.03066351,-0.01014049
-0.03988118,0.01109164,0.014325200000000001
-0.02110595,-0.02624349,0.05096763
0.04231861,-0.01975506,0.019143900000000002
-0.01164869,0.006190581,0.03301335
-0.02211722,0.004374545,-0.01578528
0.02973549,-0.03071066,-0.02763958
0.04171509,0.02254663,-0.02610345
0.01936518,0.06022814,-0.02188485
-0.02140652,0.006231979,0.0201206
-0.01384181,-0.03295438,0.02969837
-0.04460009,0.02017964,0.00566492
0.006224332,-0.04290322,0.03438555
-0.02973359,-0.01079858,0.008665886999999999
-0.0058692480000000005,-0.05758509,0.02014594
0.01827765,-0.06038512,-0.0225375
0.05844043,-0.08678636,0.02372609
0.02299311,-0.08842944,0.007598631
-0.005111954,-0.05911989,0.02518001
0.02081782,-0.05833105,-0.00695376
0.07781927,0.006181572,-0.0582525
0.03366924,-0.04253875,0.008539126
0.02051791,-0.03056625,0.007916488000000001
0.01394711,-0.04109547,0.03246341
0.01696004,0.001179177,0.01923113
0.0481341,0.03295821,-0.01543382
0.0161095,-0.00743644,-0.03225956
0.005900949,-0.01866448,0.0026281090000000004
0.01609247,-0.02575292,-0.0006872271
-0.006943166,0.006645713,-0.04952797
0.01906651,0.03932571,-0.07598919
-0.01371687,0.02984171,-0.02960121
-0.0197938,0.025934500000000003,-0.01592145
-0.008091873000000001,0.04119682,-0.02027805
-0.0027797259999999997,-0.01517071,-0.00016882650000000002
0.01725515,0.01612318,-0.003762988
-0.06444365,0.001012307,0.04926124
-0.01445359,-0.006161969000000001,0.03111792
-0.003755873,0.111229,0.00014355139999999998
-0.0002964092,0.06627627,-0.012344599999999999
-0.03219105,0.02911509,0.004781002
0.008278457,-0.03415996,-0.008446069
0.03245564,-0.01702411,0.007704852
-0.0034971159999999998,0.02950467,0.03621035
0.0036267409999999997,0.001072899,-0.006357881
-0.009512261999999999,-0.1014061,0.01699674
0.02020895,-0.11535129999999999,0.014107499999999999
-0.01182975,-0.05678378,0.04294008
-0.03128324,-0.00765204,0.05245518
0.01230868,0.04816147,0.03788959
0.02238432,0.02012297,0.02114492
0.011198600000000001,-0.02655961,0.02189945
-0.001563361,-0.02149476,-0.003036193
-0.03937856,0.04187312,0.01600215
-0.05600536,0.04403868,0.03452299
0.01516616,0.0227523,0.0027246590000000004
0.04677744,-0.02489254,-0.03241955
0.03057294,-0.1329214,-0.01661665
0.0048862590000000004,-0.04503953,-0.04715635
-0.02571728,0.009868067,-0.05250954
0.02406637,0.0210737,-0.05008027
-0.01664487,0.09916684,-0.02811579
-0.008201639,-0.01418307,0.001968788
-0.03102992,0.04652976,0.05558928
-0.02678112,0.1988076,-0.02442039
0.01430432,0.14256649999999998,0.02125905
-0.016332299999999998,0.1081045,-0.01404254
-0.01968578,-0.11421700000000001,0.01358046
0.04166594,-0.11887930000000001,-0.05608284
-0.0027938570000000003,-0.07643175,-0.02835284
0.01101354,-0.02985546,0.0214144
0.06976026,0.1884784,-0.1209838
0.05007817,-0.1915425,-0.01003248
0.03471861,-0.1541689,0.02152851
-0.01708982,-0.1045489,-0.02007622
0.04077868,0.05711599,0.02526524
0.05209679,-0.009683713,0.03306772
0.005439209,0.03947708,-0.001348813
-0.01521958,0.08572131,0.09256456
-0.02521762,0.1697813,0.05533885
-0.01604213,0.1029625,0.04879628
-0.06523277,0.06411599999999999,0.15238429999999997
-0.01212753,0.05135135,0.10543920000000001
0.02686489,0.0901956,-0.04533007
0.04467673,0.01712502,-0.02556528
0.08674842,-0.10269269999999998,-0.0504623
0.05108072,-0.09001331,-0.0948204
0.10518889999999999,-0.1205156,0.03984167
0.1548418,0.1604625,0.05704401
-0.09311488,-0.11552480000000001,0.16273610000000002
-0.07804041,-0.20737979999999998,-0.024018099999999997
-0.06302007,-0.25007060000000003,-0.02892265
0.07253059,-0.23440679999999997,-0.07262012
-0.01610921,0.1008892,-0.06347269999999999
-0.05243611,0.1465578,-0.16752550000000002
-0.06882074,-0.08898792,0.1267836
-0.11808339999999998,-0.1620043,0.1178414
-0.05942376,0.01092929,-0.09423015
-0.04064955,-0.3389302,-0.004328569
-0.17358020000000002,-0.3482458,-0.14590179999999997
-0.1262742,-0.3510523,-0.1961504
-0.09270374,-0.26819709999999997,-0.08926795
-0.1005025,-0.2527623,-0.0180508
0.01827387,-0.03255192,-0.03026805
-0.04252824,0.15899770000000002,0.05957536
-0.05055028,0.1641684,0.1198846
-0.02614914,0.2115987,0.09396565
0.05454336,0.2933842,0.1304478
0.02938572,0.286086,0.12726010000000001
-0.0605299,0.2210152,0.16156510000000002
-0.005589347,0.1459473,0.1247095
0.03563323,-0.1142421,0.07537074
-0.03962923,-0.1504016,0.07891798
0.07583847,-0.1685297,-0.007388728000000001
0.01741956,-0.1014239,0.01357176
0.03147351,-0.11738210000000002,0.07309522
0.06802794,-0.05114664,0.02198528
0.03898031,-0.05756748,0.03356825
0.01953974,-0.1206026,0.02430313
0.02145929,-0.04497186,0.02634935
0.03213015,-0.03405809,0.01682778
0.03008169,-0.01014997,0.02510738
0.06002917,0.05641641,-0.05663286
0.08969830000000001,0.114673,-0.02964559
0.06268184,0.113942,-0.06625941
0.04281395,0.09329169,-0.0126868
0.02902643,0.1383574,-0.03272952
0.023303,0.1150606,-0.01486372
-0.03101195,0.10335830000000001,-0.0001881709
0.0337885,0.01678495,-0.02862165
-0.02024952,0.02513453,-0.03066043
0.02877336,0.02432715,-0.06070552
-0.037808499999999995,0.01167293,-0.03806251
-0.05470733,0.03017423,-0.053646900000000004
-0.03081946,0.03512831,-0.03840148
0.01598199,-0.02850866,-0.05854925
-0.06241744,-0.09099262,0.006867005
0.04880672,-0.07604484,-0.06832221
-0.00803171,-0.03104573,-0.02897423
0.04967012,-0.06282599,-0.04200184
0.02598023,-0.03025433,-0.05639645
-0.01660846,-0.01018473,-0.02702041
0.009916386999999999,-0.001041614,-0.02576553
-0.02243656,-0.04786231,0.009006083
0.0074313619999999995,0.01010763,-0.01921237
-0.0120242,-0.008875933,0.009830962
0.02814863,-0.04641096,0.00022328830000000003
-0.0167806,-0.01712755,-0.01721204
-0.01515056,0.05949906,-0.04099786
-0.02200509,-0.02946614,-0.01126494
0.003176281,0.01748265,-0.05429811
-0.04976797,0.03460419,-0.03118348
-0.02149566,-0.008389876999999999,-0.004212394
-0.01382846,0.02494608,0.0029225270000000003
0.006344476999999999,-0.001750685,0.0020679229999999997
-0.07869999,0.01277905,0.04911701
-0.03392689,-0.03141268,0.04218272
-0.01182334,0.05719652,0.01018338
-0.03914362,-0.01459771,0.06440149
-0.01138197,0.03339307,0.03494023
-0.07118598,0.0397988,0.0846296
-0.01411578,-0.01618578,0.06497381
-0.021130799999999998,-0.03764844,0.07721429
0.01266682,-0.08556958,0.03960926
-0.04686879,-0.0802962,0.06035648
-0.027719499999999998,-0.04865924,0.04672487
-0.05273869999999999,-0.01160966,0.04018608
0.01069816,-0.0392515,0.01219619
0.0031785940000000003,-0.01619616,-0.00121425
0.00509781,-0.03647577,0.04190822
-0.001431731,0.007966915,-0.01099543
-0.03976936,-0.0010038389999999999,0.01467341
0.03006313,0.01991623,-0.02613264
0.03735593,0.0005511418000000001,0.008441225
-0.032388799999999995,0.02215124,0.00390962
0.009942838,-0.01806569,-0.003298857
0.04631306,-0.0015827520000000002,-0.04275284
0.03329951,0.01193572,-0.03888158
0.007248291,0.02002342,-0.01697093
0.05508626,0.02387606,-0.01901947
0.09775227,0.03819073,-0.09135662
0.06178208,0.004161194,-0.05341555
0.02235571,-0.0075220880000000006,-0.01092103
0.09467312,0.01731274,-0.052237099999999995
0.05651888,0.03360431,-0.01090611
0.008184756,-0.0032205059999999997,0.006794415
0.020243599999999997,-0.01775754,-0.005596492
0.02070221,-0.04629322,0.006631329
-0.07990772,0.01777748,0.02257855
-0.04758948,-0.0038455,0.006479414
-0.04166652,0.03924301,-0.01565684
-0.01887831,-0.002413223,0.009874105
0.006928884000000001,-0.001661744,-0.01453499
