Acc_x,Acc_y,Acc_z
0.03934201,-0.0034108959999999996,-0.000923695
0.006181138,-0.04202798,0.0314233
-0.0036212690000000003,-0.03139538,0.004156135
-0.02269463,-0.02643874,0.03604752
0.01690009,-0.06433618,-0.01285439
-0.01639459,-0.04848005,0.02842212
-0.04176289,0.0383986,0.01383171
-0.06193919,0.06125521,0.01925604
-0.008152125,0.0113578,-1.0411019999999999e-05
0.02162657,0.007730834000000001,-0.01653971
-0.001188961,0.01772958,0.0023412520000000003
-0.03954866,-0.0076797340000000006,0.0060965640000000005
-0.01156221,-0.0205632,0.01722076
-0.01197404,-0.05267376,0.01398101
0.01171332,-0.02148943,-0.02399281
0.0359107,-0.04984696,-0.02486021
0.02262897,-0.05201998,-0.02372239
0.01871232,-0.03139069,-0.02903521
-0.003893448,-0.04345494,0.002687708
0.04271555,-0.02030209,-0.05055474
0.01876983,-0.03244328,-0.01803693
-0.005744288,-0.007805109,0.0163279
-0.02565986,-0.01618513,0.02864743
-0.01914999,0.01239492,0.03283243
-0.007903705,-0.01949782,0.04173772
-0.01111799,0.01664539,-0.006136319
-0.0003875776,-0.030147900000000005,0.0042366520000000005
-0.02240676,-0.04079719,0.02602933
-0.0108613,-0.0132625,-0.01211506
0.005409721,-0.01838139,-0.02103907
0.03961031,-0.05805076,-0.04606858
-0.006272702,0.0022686679999999997,-0.03146591
0.02455583,-0.03137465,-0.05942446
-0.02193194,0.00732372,-0.005687349
-0.02084219,0.02883929,-0.00040475470000000003
-0.03379386,-0.01210832,0.01108068
-0.03177073,-0.007499155,0.01287059
-0.02361687,0.03012746,0.00579294
-0.004877701,0.01378945,0.01150561
-0.03446161,0.05302348,-0.0001074206
0.01501861,-0.001827646,-0.0001572538
-0.03010446,-0.04804668,0.05275252
-0.05577934,-0.04708848,0.03410365
-0.008908594,-0.01814527,0.025538400000000003
0.01171463,-0.0035374620000000003,-0.02381588
0.01042173,-0.04711271,0.04068722
0.0247261,0.01634764,-0.03149067
0.03506455,0.02385552,-0.006738438
0.03015222,0.02941143,0.004926926
0.08604149999999999,-0.02405672,-0.043320300000000006
0.0684634,-0.05927043,-0.003596181
0.009177034,0.0002816133,-0.02209172
0.03974253,-0.03960758,0.02230827
0.01712831,-0.008548567,0.0001241411
0.01947618,-0.007799637,0.01802589
-0.009865867,0.006107824,-0.006655021999999999
-0.01705918,-0.05334104,0.008502731999999999
0.01349835,-0.08013245,0.01613786
0.01094885,-0.05286008,0.004712732
0.01731951,-0.01541286,8.142739999999999e-05
-0.01494279,0.062460400000000006,0.04813325
0.01596568,0.03594989,0.01897387
0.01671541,0.02399819,0.02146694
0.03329185,-0.07065784,0.03923057
-0.004981416,0.02267132,0.01280787
0.01072131,0.03079659,-0.005021214
0.02463821,0.03196659,0.009204149
0.0001886394,0.03490525,0.05759105
0.00634044,-0.005765863,0.05458602
0.03294029,0.01515987,0.02848712
0.05939247,0.01488974,-0.0035206729999999998
0.007121503,0.003503215,0.02336182
0.01210609,-0.03541294,0.03059226
0.02339368,-0.04951225,0.009910278
-0.007985231,-0.02472021,0.001522766
-0.02186357,-0.1577949,0.02552347
-0.01656987,-0.0769665,-0.05207232
-0.03787347,-0.1260861,0.0001700707
-0.04167924,-0.1095257,-0.009485927
-0.0255198,0.02209503,-0.006294620999999999
0.01650346,0.01609842,-0.02922837
0.03630431,0.04803048,0.017083599999999997
0.06042305,0.10593949999999999,0.02711358
0.05620381,0.1190377,0.02079988
0.03128978,0.1820981,0.03180214
0.01894545,0.108182,0.04567534
-0.02001249,-0.07478878,0.08181918
-0.009858944,0.1676975,0.1455964
0.07904183,0.2919652,0.12910239999999998
0.02748816,0.3285436,0.06201106
0.04661613,0.3002714,0.06266191
-0.1134173,0.1821408,0.09379762
-0.1036923,0.1801757,0.06580472
-0.06614886,0.3088328,0.11775330000000002
-0.05654722,0.2623163,0.09809309
-0.00119033,0.1239132,0.01766505
-0.02048627,-0.009999543,-0.02570736
-0.01061549,0.02308192,-0.06621544
-0.08443731,-0.04939242,-0.03853644
-0.1015885,-0.21453029999999998,-0.06193014
-0.04863485,-0.364873,-0.09864732
0.004868701,-0.2022635,-0.23463589999999998
-0.00789015,-0.30003209999999997,-0.20373840000000001
-0.07487254,-0.4828164000000001,-0.1597661
-0.12136559999999999,-0.4516062,-0.22690990000000003
-0.07529551,-0.36274290000000003,-0.1815425
-0.01067931,-0.4386978,-0.21840779999999999
-0.06648374,-0.30397140000000006,0.006339391999999999
-0.07161108,-0.19227439999999998,0.16352429999999998
-0.08133728,0.1561641,0.1375485
0.43118549999999994,0.404941,-0.32560100000000003
0.1604442,-0.21330770000000002,0.16577429999999999
-0.1805694,-0.07647946,0.19393529999999998
-0.34183309999999995,0.05192858,0.07461758
-0.02733567,-0.11310910000000002,0.04512466
0.0658042,0.11158489999999999,-0.08129629
0.05823313,0.1721123,-0.08127403
0.14867629999999998,-0.1047779,0.08221652
-0.03391055,-0.1517358,-0.02661816
-0.03440056,-0.07543346,0.02431664
-0.05998684,0.04777171,0.033583499999999995
-0.008839101,0.038702600000000004,0.01389535
-0.02741592,0.02651312,-0.02715589
-0.06968561,-0.05369074,0.08267324
-0.0336726,0.03409954,0.04793624
-0.05140949,0.2331723,0.09405879
-0.02426143,0.16189800000000001,0.10719260000000001
-0.006632593000000001,-0.1969138,0.07808825
-0.06991814,-0.1904959,0.03899173
-0.058109900000000006,-0.20863299999999999,0.04795599
-0.05450313,-0.05406776,0.02803923
0.04962736,0.08385767,-0.02202178
0.05045444,0.07481901,0.009896923
0.001617164,0.04543978,-0.001136723
-0.0139912,-0.02076724,-0.006185468
0.02542933,-0.11262370000000001,-0.06094941
-0.00714799,-0.1203728,-0.04994947
0.01575635,-0.05590092,0.008583140999999999
-0.002874479,0.02105229,0.0029590529999999997
-0.02093935,0.05439603,0.07770322
0.02907742,-0.007720303,0.07449089
0.03168807,-0.07310279,0.03929548
0.009379108,-0.07255147,-0.01732319
0.0287712,0.02544653,-0.02546306
-0.01286534,0.1395046,-0.03497824
0.01486344,0.08882423,-0.0352091
0.0071472869999999996,-0.0328296,0.01721029
-0.05164232,-0.05177466,-0.1398802
-0.03675508,-0.07325099,-0.1621609
0.03763406,-0.22764279999999998,-0.08978242
-0.03485752,-0.20433610000000002,-0.06814838
-0.007248774,0.07125415,-0.08662272
0.05044433,0.1080596,-0.05813079
0.03771587,0.105012,-0.02651022
0.04134372,0.1159333,-0.06495748
0.01641919,0.054712000000000004,-0.04316784
0.02013083,0.0371711,-0.03011232
-0.006152945999999999,0.1193465,-0.03170418
0.01091463,0.13461529999999997,-0.03142603
-0.02061383,0.13304870000000002,-0.0009321207000000001
-0.01501305,-0.005013257,-0.02308504
-0.020577900000000003,-0.04937252,-0.0247267
-0.02712497,-0.02585877,-0.05302834
-0.03435755,-0.04053402,0.005833569
-0.01185896,0.001623731,-0.0074356000000000005
-0.01282421,0.00919271,-0.001815629
0.02152056,-0.03721502,0.02100587
-0.00019105900000000002,0.01160224,0.0888634
0.04190689,-0.0226365,0.008741760999999999
0.01182891,-0.04525217,0.03679232
0.01501613,-0.1425412,0.03299813
0.005356224000000001,-0.06167845,0.05139854
0.003557727,-0.0213253,0.03913207
0.01688254,-0.01705456,0.08852744
0.05657165,0.01780376,0.01359005
0.01898899,0.01488377,0.04980818
-0.009544259,-0.02610341,0.07165444
0.0031536890000000003,-0.07621482,0.07997012
0.04068292,-0.07230121,0.03780865
-0.003691256,-0.03341281,0.05717889
-0.01827219,0.03355247,0.04660224
-0.01193321,0.02821026,0.02027569
0.02201103,0.000411819,0.015924
-0.01330339,0.05018749,0.01230189
0.03669602,0.08427417,-0.0032811570000000003
0.03016697,0.1274931,-0.02238049
0.03377595,0.12525050000000001,-0.04516991
0.0283925,-0.01134385,0.03354903
-0.0013117320000000001,-0.02554779,0.04008929
-0.008093239,-0.07902842,-0.01297468
-0.02598904,-0.08673206,0.01325555
-0.07116514,-0.01570105,0.02459577
-0.08022559,-0.04597114,0.03341281
-0.04574807,-0.02876293,0.02263184
-0.01019592,-0.06896989,0.04706508
-0.08948641,0.05452828,0.08504859
-0.10394790000000001,0.08767229,0.07334799
-0.06354007,-0.01729413,0.02643176
-0.05010004,-0.17695770000000002,-0.01894804
-0.01600076,-0.18425770000000002,-0.05753402
-0.03564182,-0.02431215,-0.08672056
-0.00719129,0.01651058,-0.037493900000000004
0.0305805,0.11025619999999998,-0.05756122
0.07071523,0.09390811,-0.05626927
0.056545500000000005,0.01767425,-0.07431737
0.03125243,-0.0022090720000000003,-0.05473584
0.04300392,-0.10339169999999999,-0.08402495
0.004251538,-0.01400191,-0.06085549
0.03770768,0.009512134,-0.04676151
0.017191400000000003,0.01248027,-0.02797441
0.01740283,0.003861859,0.01786923
0.008271802,-0.04714834,0.01199479
-0.02610695,-0.00412763,-0.01232417
-0.00433125,-0.021322999999999998,-0.04027838
-0.004601355,0.03037794,-0.02289812
0.00593915,0.01161699,-0.007363323000000001
0.01138629,0.01522352,-0.02117049
-0.004483155,-0.04849458,0.01583839
0.04721072,-0.08581333,-0.05744215
0.03208286,-0.04048863,-0.01778271
0.0248914,-0.025508199999999998,0.005203165
0.06781602,-0.0006791106,-0.02953593
0.01486144,-0.0075904069999999995,-0.01457259
0.03479088,-0.05626549,0.0330659
0.03249902,0.03102082,-0.01401982
0.04016151,0.04534096,-0.005625756
0.04748819,0.04831144,0.01725845
0.008166939,-0.004495412,0.1083058
0.001695961,0.04575088,0.04232538
0.01877629,-0.02449094,0.06561095
-0.007203264,-0.09664159,0.04750916
-0.02421447,-0.1147248,0.02023929
-0.002136092,-0.08595459,0.0001548068
-0.01599229,0.01979402,0.05847951
0.03595984,0.03089002,-0.006320566
-0.0019949679999999997,-0.02118442,0.01994481
-0.02048362,-0.01918853,0.0007125782
-0.002451614,0.01957478,-0.003688195
-0.01116162,0.03513906,-0.01990437
0.02661389,0.0007848292999999999,-0.003354256
-0.01102055,-0.01490184,0.01214056
-0.01401187,-0.03163559,-0.01151244
-0.04474682,0.01425382,-0.04521484
-0.02101267,0.08045243,-0.07801284
-0.01144877,0.03060085,-0.01426113
0.02265561,0.07916234,0.004277417
0.0022631829999999998,0.1285348,0.03912609
-0.003713684,0.27448790000000006,0.05693908
0.03780369,0.1970584,0.06421278
0.02612144,0.1700479,0.09962230000000001
-0.02476593,0.20480839999999997,-0.0028067440000000003
-0.09242710000000001,0.2306947,0.136232
-0.08795832,0.2866329,0.10641760000000001
0.004078895,0.23881420000000003,0.14734129999999998
0.014918100000000002,-0.10083330000000001,0.08804902
-0.07240235,-0.3781545,0.0417504
-0.01804082,-0.3300288,-0.1226877
0.05292387,-0.3887684,0.02050305
0.05688892,-0.09800549,-0.05989425
-0.03794238,0.04657112,0.1230528
-0.05263078,0.07186826,0.0856132
-0.12482,0.03561453,-0.12261500000000002
-0.07784289999999999,-0.04637888,-0.06136102
-0.08199628,0.06439699,-0.12301680000000001
-0.02822628,-0.068,0.02725504
-0.0782706,0.05989857,-0.16204200000000002
-0.03059022,0.1038779,-0.04957005
0.004502621,-0.2581618,-0.14325320000000002
-0.05590884,-0.349576,-0.22217689999999998
-0.02036964,-0.6735083000000001,-0.1506698
-0.07087544,-0.5285625,0.02382094
0.43443059999999994,0.07416067,-0.42229679999999997
0.5775588,0.1110282,-0.3275995
0.387871,0.0014787020000000001,-0.01482421
-0.4994733,0.2418371,0.2579648
-0.3772672,0.07661532,0.2155864
0.004440859,-0.02221569,0.009182220999999999
0.34352459999999996,-0.03899205,-0.09718613
0.29654790000000003,-0.007144183,-0.08956797
0.16451870000000002,-0.2260256,0.09585232
-0.03438602,-0.08628038,-0.046108800000000005
-0.009022156,-0.1363384,-0.01386858
-0.01334186,-0.02940181,-0.01973412
0.04085284,0.05083825,-0.04453121
0.08178568,0.06265801,-0.008268144
0.0397619,-0.01289855,-0.0201859
0.06164871,-0.0419217,-0.05098113
0.05675073,0.11710999999999999,0.03364404
0.08419718,0.1358066,-0.06650613
0.08080028,0.09347308,0.08532029
0.02267144,0.23324450000000002,0.005388326
0.005306045,-0.07413337,-0.0137773
0.002237151,-0.1067983,-0.027777
-0.08904788,-0.07098877,-0.06512181
-0.07777485,-0.07403539,-0.01582329
-0.03062932,-0.05199201,0.0744447
-0.03224032,-0.01938752,0.05289906
-0.04361029,-0.041561,0.06580774
0.00448515,-0.01702224,0.01233445
0.04970472,-0.01563833,-0.004692460999999999
0.04137452,0.003002385,0.03072232
0.05526255,0.05395599,-0.006877716999999999
0.01051874,-0.03540912,0.0312903
0.0032785490000000004,-0.131655,-0.01565767
0.05543573,-0.11715639999999998,0.004130574000000001
0.06246587,-0.05302477,-0.03515364
0.04481376,-0.05409621,-0.006917486
0.0218974,-0.01676715,0.006357023000000001
0.008988742,0.04669423,-0.03565162
0.01058458,0.05282288,-0.01568695
0.02040744,0.04238386,-0.02920772
-0.01924245,0.1008213,0.005624156999999999
-0.04779737,0.1119463,0.005038494
-0.05217107,0.08221462,0.04554992
-0.04001738,0.0136559,0.03766326
-0.04207845,-0.01478942,0.006869055
-0.03702055,-0.0164386,-0.008160887
-0.01018018,-0.06943669,0.02125305
-0.03251017,-0.03709561,0.01772772
-0.01407814,0.04927742,0.03768468
-0.03247551,0.02302583,0.02035324
0.005412215,-0.05394854,0.02120508
0.006422771999999999,-0.1008502,0.001616779
-0.02649992,-0.1151181,0.07355956
-0.02878566,-0.08181829,0.08888236
-0.01052115,-0.05945313,0.02003589
-0.02999242,-0.001528997,0.02484965
-0.04921772,-0.01640149,0.07398106
-0.02671669,0.01904799,0.01693243
-0.008702341,0.02776243,-0.006970399999999999
-0.023387,0.01238649,-0.00928935
-0.01368495,-0.01480224,-0.01864188
0.004720869,0.01314038,-0.03305611
-0.01212852,0.03937254,-0.01731567
-0.01456366,0.01306852,0.014293200000000002
0.008896831,0.02401755,-0.02530316
0.004007843,0.01935414,0.0077664990000000005
0.01362831,0.01516023,-0.02386805
-0.01099314,-0.02850736,0.045748800000000006
-0.02041215,-0.02464149,0.0256362
-0.01365454,-0.04274064,0.01235341
-0.02273238,-0.01653071,0.01849389
-0.04120859,-0.01021573,0.06682592
-0.005244571999999999,-0.1065358,0.008706838
-0.03656276,-0.12312329999999999,0.04774645
-0.021219599999999998,-0.08397225,0.04736592
-0.02169504,0.04285298,-0.01329828
0.00920756,-0.005464411,0.009507851999999999
-0.001289016,-0.004155122,-0.03181049
0.0016009129999999998,-0.07283616,0.003051957
-0.002171475,-0.02342475,0.0259949
0.00216883,0.004160365,-0.008860918
0.0002069175,-0.01337687,-0.01753407
-0.003196618,0.02756003,-0.01007402
-0.01549832,0.04411527,-0.01961729
-0.01639964,0.02746845,0.01038496
0.02704739,0.01300034,-0.009145241
0.02262124,0.02592122,-0.01131265
0.007832848,0.001139157,0.01681112
0.03082656,-0.009990846999999999,0.01192509
-0.002299513,0.0009744634,0.03078618
0.005844942,-0.014636099999999999,0.02532918
-0.06338347,0.0006214194,0.03755932
0.02332618,-0.04611498,0.008235749
-0.02231425,0.014615399999999999,0.04450735
0.02898237,-0.0243334,0.036307599999999995
0.03847455,-0.05404444,0.007242787
0.01095268,0.03171313,0.003519092
0.01774527,0.01684801,0.03769004
-0.0041751620000000005,0.02575438,0.0458179
0.0238859,-0.01175879,-0.01556473
-0.03681976,-0.002844732,-0.01609385
-0.009181605,-0.01639259,0.005713506
-0.003689742,-0.02456411,-0.04659223
-0.01724701,0.03524861,-0.039687400000000005
0.01505875,0.08348294,0.06541716
-0.020938400000000003,0.01526007,-0.02742814
-0.01054663,0.1013705,-0.006349316
-0.006471146,-0.04293159,0.06667157
0.008875753,0.09805865,0.03104004
-0.02077128,0.05723586,0.04093703
-0.02533567,0.004887954,0.01257833
-0.06858855,-0.1043192,0.06795011
-0.08144236,-0.1105989,-0.02345906
-0.05686378,-0.1388835,0.00304696
-0.04502796,-0.06795764,-0.01471742
-0.01640197,-0.0025017620000000003,0.030111000000000002
0.04708371,0.02335626,-0.04208888
-0.01087655,0.03967629,0.014484
0.005475683,0.04558062,-0.02414168
0.01463768,-0.0335176,-0.06209924
0.01071341,0.05402886,-0.04453276
0.00451158,0.07429786,-0.0033714559999999997
0.04832757,0.09889627,-0.03637524
-0.01391885,0.06653082,0.0004540328
-0.04657896,0.03766078,-0.07861026
0.08025329,0.2949872,0.3410802
0.04363055,0.5668191,0.1571609
0.01835375,0.3671616,0.168019
0.06131762,-0.10455009999999999,0.09416127
0.008587573000000001,0.02976101,0.002605291
-0.03655947,-0.0362248,0.1386371
-0.03457292,0.04549944,-0.12888319999999998
-0.05916727,0.02278283,-0.04315709
-0.05748329,-0.01084107,-0.06427971
-0.07196149,-0.1446839,-0.09053684
-0.03733886,-0.10390250000000001,-0.1585785
-0.02881544,-0.370548,-0.24812399999999998
-0.0709786,-0.4335254,-0.246346
0.008296747,-0.5120273,-0.05356357
-0.02571917,-0.5561804,-0.16341470000000002
-0.03135343,-0.3069795,0.06067998
0.05583812,0.06652568,0.13050219999999998
0.06984507,0.3148062,0.003801122
0.06480511,0.1860474,-0.0067915530000000005
0.029960300000000002,0.05333339,0.2798414
-0.1375934,0.1248609,-0.01349277
0.08453061,0.03858534,0.10918889999999999
0.1746891,-0.08033556,0.1191146
0.07051539,-0.01399087,0.1146826
0.02157022,-0.04858221,0.16818729999999998
0.04392526,-0.08427118,0.01733275
0.07371768,-0.09679224,0.01153857
-0.0010608689999999999,-0.0504557,0.02869559
0.03707531,-0.1157471,-0.01058342
0.01543396,-0.07994969,0.08051075
0.002718151,0.06307705,-0.05920421
0.01369801,-0.05333707,-0.04844887
0.02930682,-0.10840230000000001,-0.08468892
0.005636881999999999,-0.06989209,-0.07967103
-0.02229714,-0.01808706,-0.08700539
0.02244119,0.1467767,-0.07178897
0.02099877,0.0697927,-0.04997365
0.04691,-0.03707029,-0.05494769
-0.01070755,0.02403684,-0.06226642
-0.01329106,0.03935242,-0.04748419
0.00048334800000000003,0.06662962,-0.02950506
0.0026908170000000003,0.08780614,-0.03183624
0.06452252,-0.04495283,-0.05512061
-0.009353241,-0.09208063,-0.04664885
-0.0071925669999999995,-0.08276919,-0.07454873
0.01576336,-0.1391865,-0.04350685
-0.03270101,-0.03788859,-0.004293161
0.009383943,-0.0031842140000000003,0.05404352
0.00294359,0.05890389,-0.02432206
0.03039003,-0.02023988,0.01189869
0.004346685,-0.05830359,-0.02245258
0.02901496,-0.03569507,-0.01864808
-0.01156129,0.03696433,-0.02295503
-0.01709033,-0.01483303,0.03585345
-0.03258846,-0.001003843,0.07025758
-0.0003161067,-0.01450308,-0.01764399
-0.01963316,0.03082808,-0.0074066209999999995
0.02219004,-0.03329737,-0.04835995
-0.015378600000000001,0.06989044,0.01386034
-0.02729618,0.06518593,0.03548786
-0.03899019,0.06338973,0.05331789
-0.01790961,0.03881963,-0.008208558000000001
-0.01458497,-0.04010539,-0.02417719
-0.02904232,-0.04557582,0.01096909
-0.06290397,-0.03570537,0.02727628
-0.01493272,-0.01419387,-0.01885166
-0.0006828308,0.01499595,-0.03702353
-0.01180398,-0.02902303,-0.002481123
-0.007959815,-0.07517333,0.008701919
-0.03343198,-0.05915667,-0.002627393
-0.01089832,-0.05653358,0.01168133
-0.001773182,0.0057938619999999995,0.05128016
0.00028902290000000003,0.02293827,0.02470998
-0.01720018,0.04519749,0.05722487
0.001299562,0.02762761,0.01266251
0.03952933,-0.0608822,0.02929496
0.0011584339999999999,-0.002988942,-0.02383773
-0.001579088,-0.05794354,0.02813616
0.02363747,-0.08174182,0.03452409
-0.005220423,0.002704357,0.02140952
0.01965687,-0.02727368,0.02527464
-0.0019427539999999999,-0.01829801,0.06655622
0.05045391,-0.01598932,0.02409479
0.01418016,-0.00861466,0.009843511999999999
0.01782211,-0.02731645,0.04144078
0.03766539,-0.01502234,0.00372325
-0.01288662,0.009012723,0.01953936
-0.01349064,-0.02085238,0.03518148
-0.04339001,0.02008243,0.04286889
0.0007397812,-0.06330267,0.04741912
-0.01315661,-0.06921954,0.02292932
-0.03516841,-0.03508914,0.06005128
-0.008701452,-0.001068674,-0.002060155
-0.01726035,-0.009920732,0.02265389
