Acc_x,Acc_y,Acc_z
-0.04381903,-0.05416835,-0.011886200000000001
-0.04475885,-0.0008922219,-0.02300553
0.03713644,-0.007388591,-0.01582731
0.02915253,-0.05507507,0.03063825
-0.01333762,-0.0377157,-0.0048980840000000005
0.02700726,0.005346887,0.002771178
0.02726804,-0.06460705,0.006065482
-0.01648135,-0.04373135,0.02132931
-0.04474989,-0.06669125,-0.006668834
0.02166733,-0.0033787340000000004,0.01786861
0.00298697,-0.00638574,0.01804231
0.0070810000000000005,0.03145272,-0.008124731
-0.06731521,-0.002382692,0.007504966
-0.04542942,-0.04612276,0.03571613
-0.02886499,-0.0053519940000000005,0.0128498
0.05084997,-0.03289855,0.03434733
0.0066905590000000004,-0.02121947,0.03635098
0.01098779,0.015669899999999997,0.01083601
0.0190197,0.0035189979999999997,0.006724894
0.0005708318,0.008004768,-0.01796005
0.02740917,-0.01730693,-0.006581024
0.01983182,-0.07331175,0.02400249
0.03080178,-0.05826783,-0.004298779
0.01073065,0.005454852,-0.03537422
0.028073200000000003,-0.02301244,-0.007607985
-0.05493502,-0.0148222,-0.02012731
0.0048724020000000005,0.03733417,-0.03223965
-0.043483,0.007878266,-0.01936658
0.0183195,0.06057805,-0.02252155
0.01113078,0.02504788,-0.003571327
0.0049421429999999995,0.01229439,-0.03850437
0.01614902,-0.03388776,0.0009296619999999999
0.0296848,-0.02117175,-0.01806225
-0.01402862,-0.02255054,-0.01926531
0.06975245,-0.0390601,0.04842057
0.054754599999999994,-0.02640224,0.04653529
-0.001112883,-0.02415554,0.01596987
-0.005421543000000001,-0.0118972,0.03309371
0.02466429,0.01629174,0.0323913
0.01327061,0.007031698,0.0007281605999999999
-0.03664256,-0.006439276999999999,-0.01356865
-0.02243147,0.0117771,-0.007003677
0.01259536,0.004721583,0.003250393
-0.03867862,-0.01912873,-0.01337015
-0.02544384,-0.01604743,-0.02025004
-0.02430408,-0.01178714,-0.02179576
-0.0435491,0.02135688,-0.05924109
-0.03139366,-0.04292469,-0.02883422
-0.00879821,-0.05356503,-0.01270342
-0.03624368,-0.05070677,0.009492425
-0.03032246,-0.002885422,-0.01909547
-0.01694892,0.01287261,-0.02646457
-0.03152679,-0.0003161137,-0.01563291
-0.05208256,0.01640614,-0.03298534
-0.02728803,-0.01167289,-0.01932798
-0.01381299,-0.01817339,-0.02254465
0.007452177,-0.01086977,0.009227244
-0.006831015,0.0107163,-0.007343154
0.02759475,0.01093039,0.0005050302
0.007067515999999999,-0.03964612,0.007953782
0.02286961,0.001614983,0.02427477
-0.01111995,0.02272408,-0.01451703
0.02815972,-0.002860282,0.01716529
0.0012073910000000001,0.01640279,0.01748903
-0.01066725,0.03007059,-0.01273918
-0.03238911,-0.01345145,0.02402834
-0.02444732,-0.03205325,0.02729132
0.0109693,0.005895513000000001,0.007883661
-0.0523802,-0.06891139,0.02873899
-0.01780014,-0.05786231,0.03105096
-0.02367033,-0.030039499999999997,0.03538395
0.01134751,0.006041289,0.02700581
-0.003214983,-0.008998156,0.04993208
-0.02507255,0.00379066,0.01672222
-0.02493488,0.01436117,-0.008295041999999999
0.008839973000000001,-0.05023628,0.0005562030999999999
0.05714671,-0.05696614,-0.0016306620000000002
0.001476527,-0.08029556,-0.0131626
-0.00605124,-0.08023274,-0.02447165
-0.0464178,-0.03324159,-0.0232454
0.01330717,0.003509451,-0.01678083
-0.04244257,0.02680317,-0.0377496
-0.01318988,0.05998456,-0.01600297
-0.009042939,0.047654,-0.04758062
0.02458477,0.05275026,-0.01598929
0.01364805,0.07544405,-0.04197552
-0.06037274,0.08272012,0.01364019
-0.03565279,0.11237219999999999,0.06299258
0.03006157,0.01753986,0.0481983
-0.005565561,-0.004648118,0.01844842
0.015489700000000002,-0.009485264,-0.005550759000000001
0.04030268,0.03507631,0.09156012
-0.002496066,0.00469202,0.03937574
-0.05332233,0.03919099,-0.01172293
-0.02798062,0.1276412,-0.04298404
-0.07140008,0.2730804,0.02013192
0.01314215,0.320769,0.02283248
0.01153651,0.3216073,0.06491388
-0.03048689,0.11958250000000001,0.02816681
0.02438317,-0.1113066,-0.02199765
0.02745811,-0.1767734,-0.04251653
0.08048989999999999,-0.2585414,0.003312569
-0.00593137,-0.1941494,-0.04853465
-0.02031161,-0.11124239999999999,-0.03832567
-0.004474904,-0.18749949999999999,-0.03221893
0.1385811,-0.18290150000000002,-0.02206402
0.06109661,-0.07376452,-0.03235596
0.04338031,-0.09325993,-0.01151803
0.08997328,-0.23232329999999998,0.004144281
0.1108901,-0.39390959999999997,0.008223973
0.02406217,-0.4567609,-0.11356780000000001
0.14820770000000003,0.140059,0.1076097
0.3106672,0.145716,0.1601386
0.2682115,-0.09706643,0.12931969999999998
-0.32701679999999994,-0.001949489,-0.1964484
0.07189395,0.24272849999999999,-0.13099439999999998
-0.04886331,0.08703251,0.08292699
-0.10040639999999999,0.10435919999999999,0.14677820000000003
0.03403704,0.3436646,0.06284265
-0.04707351,-0.1079868,0.0009163897
-0.09626879,-0.1206326,-0.008926183
-0.03201361,-0.12408789999999999,0.02448131
-0.01192664,-0.03701505,0.02678286
0.02310966,0.04418295,0.01144242
-0.0324025,0.009216174,-0.02632331
-0.04617297,-0.0050058279999999995,-0.09480319999999999
0.001107004,-0.12760739999999998,-0.0368026
-0.03108258,0.0491577,0.0037995740000000004
-0.08029729,0.08825721,0.0027525759999999996
-0.05749866,0.03549843,-0.004075179
-0.10277889999999999,-0.02648508,0.03297927
-0.07106923,-0.08799485,0.01164856
0.03637753,-0.1071558,-0.006852301999999999
-0.001153021,-0.01581527,-0.02799265
-0.02037188,-0.01102987,0.01626428
-0.03571443,-0.02545883,0.050527999999999997
-0.07240564,-0.0070695509999999994,0.01270395
-0.05962928,-0.03109863,-0.02274389
-0.08531105,-0.007569883,-0.05090148
0.01936804,-0.02342475,0.029276099999999996
0.05311705,-0.04394051,0.08586428
0.02112863,0.08925697,0.01036953
-0.03058035,0.10904660000000001,-0.0277363
0.04361579,-0.02224154,0.05252638
0.0155229,0.01109755,-0.01445263
-0.003066727,-0.03843242,-0.01113809
0.01999214,-0.10137689999999999,-0.001417747
0.05457339,-0.06322804,0.01905062
0.03172746,0.02371155,0.01864268
0.04962698,0.04905666,0.01346253
0.03375214,-0.01670598,0.01902584
0.04000888,0.01925381,-0.02506871
-0.00035380739999999996,-0.04493935,-0.003845357
0.03787315,-0.04975151,-0.002853615
0.02513253,-0.042294099999999994,-0.02651864
8.592289e-05,0.02428427,-0.01911001
0.06480172,0.0890392,0.05765584
0.08323756,0.01300018,0.1126088
0.03209498,-0.03188486,0.06845606
-0.0006185584,-0.06061323,-0.01631224
0.04445895,-0.04481253,-0.008494446
0.0406313,-0.1040585,0.06283725
-0.0038414290000000004,-0.03166822,0.009912047
-0.02136327,0.03650359,-0.01570063
-0.04339606,-0.03032782,0.013172
-0.06775096,-0.08141745,0.0008938536
-0.06681748,-0.01972469,-0.03760318
-0.05061137,0.01119828,-0.01958806
-0.02931456,0.04372309,-0.007389798
-0.04466376,0.0407685,-0.03592019
-0.06561755,0.009369772,-0.04596123
-0.06710225,0.0024524029999999997,-0.03373999
-0.09280503,-0.005242372,-0.05541468
-0.13984739999999998,-0.03004918,-0.04991836
-0.04588542,-0.02530591,-0.00592741
-0.06840751,-0.0787012,-0.01434543
-0.05093183,-0.043760400000000005,-0.0382985
-0.02899206,-0.03537286,0.005302466
-0.01390126,-0.04222362,0.009926486
-0.01139275,0.003077825,-0.005591201
-0.01666992,0.01889389,0.005294116999999999
-0.04167634,-0.01049118,0.01269322
-0.0030787609999999997,0.02487033,0.04833952
-0.07617333,0.01409307,-0.003268149
0.005233902,-0.04213885,0.01259594
0.0077298290000000006,-0.02389878,0.006442335
-0.001024673,-0.02994509,-0.01904982
0.006610321,0.001584871,0.02955649
0.01972255,-0.02114588,0.03653634
0.02652782,-0.01345045,0.01037352
0.0214558,-0.0342989,-0.00254066
0.039235900000000004,-0.09215087,0.03843645
0.0153487,-0.07213821,0.02028454
0.02066386,-0.03291444,0.01146619
0.07476969,-0.01588413,-0.006414305
0.02660428,-0.03590274,0.02856523
0.03744698,0.01747006,-0.00524798
0.05232647,0.043213999999999995,0.0009224322
0.03232783,-0.004844664,0.0071200280000000005
0.02280089,0.009105882,-0.01567303
0.09738082,0.006689186,0.01050524
0.00965601,-0.01009714,-0.006365906
0.05220106,-0.02131666,0.0038488790000000004
0.06027476,0.04035214,-0.009517398
0.01989371,0.04950172,-0.00520729
0.01176303,-0.00047020620000000005,0.02230118
0.03271952,0.03036362,0.03990635
-0.02332278,-0.02414033,0.0031543509999999997
0.01037844,-0.02514986,0.02423734
0.02166113,0.02551606,-0.03161372
-0.00242208,-0.05444193,-0.004157135
-0.01639029,-0.05439984,-0.02887397
-0.02393518,-0.04151854,-0.02077673
-0.01215532,-0.004882701,-0.01994882
-0.03391692,-0.03346782,-0.005532994
-0.02407147,-0.003440263,-0.01671426
-0.05061819,-0.07056341,-0.01126922
-0.02905626,-0.07599624,0.0005965531
-0.001876337,-0.09636065,0.02018296
0.01389708,-0.03394016,-0.01348275
-0.01546884,-0.02001673,-0.0061973209999999996
-0.03668715,0.02437057,-0.0558655
-0.009763042,0.01920161,0.0031607270000000003
0.01482379,0.00527607,0.00893607
0.004012321,-0.02971496,0.01536928
-0.06131328,0.01281777,-0.01609004
-0.02332691,-0.03045351,-0.01294139
0.007381507,-0.02397493,0.02744846
-0.007843859,-0.03232469,0.01941457
-0.01887478,-0.0572365,0.008471904
0.002436788,-0.01668855,0.02178643
-0.02565554,0.005411816999999999,0.01481957
0.01288481,-0.04919596,0.04603066
-0.01043133,-0.07347001,0.02661671
0.02896264,-0.08845548,0.03920815
0.012451,-0.008956758,0.03678796
-0.006499913,0.0369864,0.002694099
-0.02523219,-0.04238046,0.0699157
-0.03404402,-0.006658039,0.04247105
-0.02644547,0.02936802,0.04096773
-0.04524896,0.03281805,0.01677854
0.01024481,0.03291378,0.04211239
0.008914847,-0.03770127,0.030722000000000003
-0.006995286,0.002454925,-0.007336766
0.01657319,0.03310084,0.01973657
0.03059116,0.04522078,0.03643203
0.022232599999999998,0.02813455,0.002279432
0.01534263,-0.03656434,0.0001927079
-0.01313643,-0.01492821,-0.01762279
0.03665019,0.03680962,-0.008231585999999999
0.02991115,0.01590948,-0.0005777767
-0.02104153,0.07206230000000001,0.01161888
0.004374394,0.1281136,-0.002594885
0.02318559,0.11563239999999998,0.009229876
0.0581677,0.06632610000000001,0.03226965
0.02593001,-0.1591362,0.029856
0.007224245,-0.11753119999999999,-0.03391207
-0.009084868000000001,-0.06345842,-0.03931782
-0.01529791,-0.01793526,-0.06038051
-0.06910273,0.005024926,-0.04833829
-0.02626819,-0.1742185,-0.02168287
-0.02076099,-0.1279375,-0.008452197
0.02378383,-0.06012867,0.01654955
-0.03946805,-0.03129046,0.004164351
-0.010083700000000001,0.10938610000000001,0.0048041640000000005
-0.03529065,0.02908152,-0.001421731
-0.03638759,0.1128171,-0.009633655999999999
0.05152294,-0.005788855,-0.04570324
0.01211489,-0.0900941,-0.06811751
0.04132779,-0.07787823,-0.1066799
-4.691072e-06,0.02233243,-0.02894993
0.05303154,-0.127262,-0.09692553
0.07760961,-0.2617792,-0.07259659
0.07798754,-0.3054157,-0.07678650000000001
-0.06739466,-0.10804280000000001,0.02302998
0.11663849999999999,0.41896720000000004,0.1428583
0.05413564,0.22526279999999996,0.07438254
-0.1896112,0.05631267,-0.0710776
-0.17228629999999998,0.07677905,-0.2704864
0.02774358,-0.1983449,0.009583275
0.004880087,-0.1503409,-0.003517425
0.0442173,-0.09141761,0.03443297
-0.01854245,-0.007967828,-0.05728036
0.05476232,-0.1433848,-0.03139722
0.06015241,-0.056595400000000004,0.001044378
-0.04633972,-0.05075205,0.001012923
0.02290447,-0.04779613,0.009789596
0.01444324,-0.01959543,0.009487727
0.02687115,-0.006111561999999999,0.02046006
0.01706225,-0.046945999999999995,0.02809624
0.00528186,-0.09554338,0.03735062
0.01886008,0.03701787,0.02287986
-0.01182195,0.08852661,0.05021349
0.04705001,0.1163171,0.10584560000000001
-0.0554995,0.02887815,0.08208459
-0.1007191,0.0004864614,0.005641796
-0.01422289,0.01806035,0.01816352
-0.04455906,-0.09866128,0.05217978
-0.004312193,0.05075985,0.02576526
0.04276372,0.07535201,-0.08890145
0.03669472,0.0856043,-0.03038429
0.03429239,-0.10401400000000001,0.05434563
0.028745299999999998,-0.1596501,0.02662843
-0.007139026,-0.008118305,-0.03127493
-0.04097763,-0.04361966,0.015393700000000001
-0.06356176,-0.01500063,-0.04328056
-0.04455491,-0.06103263,-0.004427807
-0.06327049,-0.09249652,-0.02149526
-0.05806456,-0.0256598,-0.0291048
-0.03733382,-0.01933779,0.009773495
-0.09347484,-0.02895113,0.01671309
-0.04719136,-0.02417991,0.004841611
0.02111862,-0.06391118,0.02096042
-0.03949022,-0.02865571,-0.02233303
-0.0136351,-0.1340252,0.009207984
0.02015991,-0.05512294,0.0266115
0.01361205,-0.006277085999999999,0.009334935
0.03436618,0.02383415,0.03755242
0.04309404,0.03132454,0.06263611
0.03832824,0.08214535,-0.01607322
0.0565788,0.04040195,0.02056236
0.05907796,-0.01213842,-0.007252604
0.06303859,0.030317,-0.01692537
0.007601236,0.02138835,0.0036618640000000004
0.0113962,0.01620019,-0.001341295
0.04383148,0.06780446,0.02453907
0.02561125,-0.004280029,0.005867163000000001
-0.009206772,-0.08068648,-0.014087899999999999
0.0033555309999999997,-0.07106531,-0.008954562
0.003206727,-0.07160223,-0.01082106
0.03154092,-0.06752272,-0.004481832
0.02700925,-0.03165515,-0.02850006
0.019977599999999998,-0.04214909,0.002229019
0.02337142,-0.04065572,-0.01339162
0.01612114,4.255027e-05,-0.03487115
-0.02377908,-0.01753689,-0.04428945
-0.03935985,-0.01279858,-0.02558061
0.0406848,0.04211929,-0.02240057
-0.03877046,0.02268182,-0.04488778
-0.03946394,-0.03038559,-0.0001141783
-0.04823292,-0.001790212,-0.03256847
-0.04910786,-0.009551149,-0.04340269
0.01889999,-0.03449854,0.02095518
-0.02108636,-0.008097086,0.0023899520000000003
-0.0370435,0.03040794,-0.01898232
-0.058231500000000005,-0.008342051999999999,-0.01273862
0.008743716,-0.022540599999999997,0.03674865
-0.02814395,0.03698799,0.01296086
-0.05240203,0.03310897,0.008629169
-0.05905876,0.01262168,0.004668742
-0.008048384,-0.04500398,0.03961308
-0.009947529,-0.05584262,0.04317448
-0.008705188,0.0005490482,0.02309156
-0.07100257,-0.018284099999999998,0.003988635
-0.007219511,-0.00845078,0.03203325
-0.008806903,-0.030567,0.05423421
-0.00405545,-0.02114741,0.0300156
-0.02099925,-0.02178932,0.007467561
-0.005442461,-0.07958998,0.01804093
-0.008807207,-0.02942982,-0.04362888
-0.002500481,-0.05861971,-0.02832665
-0.009868326,-0.04939824,0.02737791
0.02224627,-0.009312886999999999,-0.0005731955
-0.02421256,0.0012090360000000001,0.00429146
0.01278761,0.01371602,-0.011787100000000002
-0.02175267,0.04148139,-0.03931486
0.0016256929999999999,-0.01337268,-0.01310327
0.01936692,-0.02524205,-0.0008700937
0.05527837,-0.009025542,0.01354305
0.06085952,0.01153356,-0.02089805
0.008640736999999999,-0.03109535,0.0042525259999999995
0.05945219,0.02179514,0.01558134
0.05150488,0.0129968,0.03995535
0.06476847,0.03932549,0.052867899999999995
0.03232941,-0.02714217,0.029901099999999996
-0.03458823,-0.05960783,0.007166309
-0.02714967,-0.0028985290000000004,-0.02044294
0.01355053,0.01758384,0.02013756
-0.003693792,-0.010004,0.01760046
-0.02804547,-0.04220833,-0.02015179
-0.05523161,-0.05803417,-0.01094824
0.01766341,-0.03811133,-0.005880875
0.001214791,-0.07138625,-0.01513164
-0.01251946,-0.01985715,-0.01128552
-0.01568394,-0.01453539,-0.01583789
-0.03422562,-0.0581235,0.001891395
-0.03263068,-0.007493071,-0.007201022
-0.02319165,0.01487095,-0.02258168
-0.02451292,-0.008440226,-0.009021029
0.009138638000000001,0.005003539,-0.02652243
-0.02427217,-0.04241773,0.01023105
-8.770078000000002e-05,0.02901099,-0.03753576
0.007286462,0.04747119,-0.03953434
0.02634981,-0.0004985109,-0.003885887
-0.04325005,0.02688087,-0.03257216
0.01958317,0.03171382,-0.02609967
-0.03293601,-0.01768381,-0.02029029
-0.0028077790000000003,0.031887900000000004,0.004504679
2.422975e-05,0.008420873,-0.008736311
-0.004155047,-0.008592673,-0.013788499999999999
0.07794757,-0.03099055,0.01206151
0.009105653,-0.05908922,-0.0034904479999999997
-0.00033564589999999996,-0.03794953,0.00931569
0.0530379,-0.01857104,0.01953756
0.03389829,-0.0252797,0.02050284
0.01465492,0.06409508,-0.01967217
-0.01169572,0.04411547,-0.01666197
0.004991283,0.01865447,-0.0291774
-0.01863137,0.00026852639999999997,-0.007324814
-0.01615382,0.2096857,-0.02758541
-0.07162156,0.2642282,-0.0605638
0.03791793,0.28789309999999996,-0.003786216
-0.04721372,-0.1315252,0.05106613
-0.0004071258,-0.2926179,-0.02724519
0.06828002,-0.1957803,-0.05126928
-0.09383053,-0.07012421,0.01026182
0.1165115,0.006080255,-0.04955659
0.10794460000000002,-0.07572393,-0.09925452
-0.07460145,0.01286152,-0.01221217
-0.1156932,0.03820959,0.03143109
-0.13049180000000002,0.04619839,0.08494602
0.0936937,-0.01587634,-0.005502995
0.03842818,-0.1899779,-0.02931987
-0.009431088,-0.15509979999999998,-0.01513449
0.006390272,-0.24235779999999998,-0.01197539
-0.1673568,-0.0998325,0.04456614
0.12649200000000002,-0.1174516,-0.07530312
0.2132634,-0.02298472,0.01218354
0.07040035,-0.05297008,0.03285126
0.02041548,0.04617403,-0.04735814
0.0566461,0.1265667,-0.06331492
-0.07758063,0.178344,0.1057089
-0.11846910000000001,0.09858801,0.05068561
-0.12879549999999998,0.03997747,0.05606427
-0.10531199999999999,-0.01155122,0.06507766
-0.02782209,-0.03466563,0.054193899999999996
-0.06415393,-0.0430896,0.07862327
-0.07993568,-0.03184206,0.06409398
-0.01205426,-0.06018431,0.01075927
-0.08598837,-0.08789366,0.0062260069999999995
0.02835801,-0.1518451,0.02631436
-0.0407791,-0.05161654,0.01368404
-0.05590111,0.001220588,0.02746752
-0.04144771,-0.0067491159999999994,0.03180058
-0.0054890369999999996,0.0373255,0.002422096
-0.03168673,-0.03220998,0.004198172
-0.01333929,-0.1353373,0.03310151
0.01614762,-0.05481512,-0.01982906
0.098406,-0.08641548,0.01037759
0.05753135,-0.1242575,0.004053328
0.02284301,-0.02757261,-0.009569939
0.04072624,0.0020919370000000003,0.0140618
0.08016371,-0.03497605,-0.0042174759999999995
0.09473795,-0.08712944,0.06565535
0.03258605,-0.05616708,0.01187897
0.04057114,-0.03289645,0.02604145
-0.08648,-0.03833829,0.01911871
-0.05282798,0.01854706,0.04204202
-0.01823581,0.05170601,0.07044700000000001
-0.03430574,0.01744484,0.05769562
-0.02085168,0.03333139,0.06103707
-0.02089969,-0.02772302,0.03144264
-0.05270898,-0.02352004,-0.0009949263
-0.0119663,0.03687936,-0.0007939548
-0.03847225,0.01958602,-0.003397206
-0.009204216,0.02297597,0.006886623000000001
-0.0159107,0.03238901,-0.005346173
-0.01892884,0.002277164,-0.04257344
-0.001555531,0.001233812,-0.02664566
0.01687248,0.006845751999999999,0.0032241870000000003
0.0072779640000000005,0.04447503,-0.02190699
0.009588242,0.04045411,-0.03887682
0.0409584,0.02274924,-0.01175978
0.031603700000000005,0.0006697830000000001,-0.05820829
0.001192324,0.00026651290000000003,-0.04495391
-0.02342479,-0.02126117,-0.05657525
0.029845599999999996,-0.01426357,-0.06249678
0.03708464,-0.01816399,-0.05826619
0.03323034,-0.01936318,-0.02926544
0.01624655,-0.0015261139999999999,-0.04932524
0.02022538,0.03264663,-0.04045437
0.03401882,-0.07356286,-0.01389881
0.00844577,-0.07585697,-0.01564367
0.02112062,-0.04234907,-0.004674247
0.02316266,0.00483798,0.005692043000000001
0.02203525,0.03438563,-0.005608302
0.01971092,-0.05789108,0.03231917
0.0157379,-0.05072695,0.01114972
0.02035439,-0.01905067,0.01456465
0.001538686,0.01246619,0.01699245
0.008676045,-0.00470369,0.06163736
0.02429475,0.04918277,0.0008777053999999999
-0.01117882,0.02762048,0.01580038
-0.00314025,-0.05942078,0.01366588
0.04026149,0.01789749,0.006391205
0.01722617,-0.03292416,0.007046561
0.008218527,-0.05383925,-0.02522689
-0.04229967,-0.01727615,-0.02526195
-0.04597551,-0.04560454,-0.0006201211
-0.0114004,-0.05790323,0.01419109
0.0005600662,-0.02603447,0.007504
0.006482007,0.01403137,-0.008652121
-0.04241667,-0.03363145,0.02063577
-0.0492698,-0.01467687,0.01246639
0.02416969,0.008280816,0.002421566
-0.03662803,-0.03695782,-0.009636249
-0.01175698,-0.0195096,-0.00033772410000000006
-0.02957358,-0.0417682,-0.007945886999999999
-0.03360525,0.004479953,-0.01319371
0.02394298,0.03042985,-0.004187664000000001
0.01613468,0.01994014,0.01370516
0.02249622,0.02022912,0.01211922
0.03719739,0.02130932,0.01457098
-0.004898866,-0.02094287,0.00825022
0.02828555,-0.02140994,0.02583989
0.004731918,-0.01617517,0.003806182
0.01849846,0.01033605,0.01121223
