Acc_x,Acc_y,Acc_z
0.01494833,-0.02153276,-0.01886987
0.05183455,-0.00604005,-0.01210298
0.06259102,0.02173864,-0.03801709
0.045147,0.06500967,0.00391043
0.04154732,0.04515013,-0.008454442
0.07185425,0.05185979,-0.02484017
0.0013419920000000002,0.04880587,-0.01175059
0.04655892,0.03080347,-0.01246259
0.04955106,0.01186037,0.01901856
0.02793471,0.04251255,0.002534394
0.05006335,-0.009703989,0.02466042
0.01888519,-0.02794151,0.0005350583
0.02411898,-0.02865902,0.004330409
-0.02704665,-0.05665971,0.04363658
-0.006536937,-0.05213264,0.03765003
-0.028150900000000003,-0.05589296,0.06969536
0.03181992,-0.01063519,0.05806499
0.002744731,-0.006208381999999999,0.034749699999999994
-0.002328973,-0.02922157,0.02336089
-0.009270465,-0.009390304,0.02411117
0.002757827,0.002988005,0.03006224
-0.04339291,0.0006928425,0.03528399
-0.05176197,-0.01274752,0.04504842
-0.06792293,-0.01008428,0.03820017
-0.01234639,-0.008956332,0.02342736
0.006660396,-0.07374495,0.07830207
-0.02389638,0.02642596,0.03155401
0.00028881619999999997,0.04211712,0.04190843
0.03679147,0.01286733,0.05592827
-0.04503973,-0.007411763000000001,0.03713613
0.02620128,-0.04251761,-0.003741635
-0.01049932,-0.02836801,0.01276297
0.04310173,0.03031198,0.02374869
-0.02786506,0.06183062,0.03945697
0.02746257,-0.02090351,0.05325051
-0.01953564,0.01593045,0.02828745
0.01172162,0.05355347,0.01935118
0.01514278,0.03815551,0.05042961
-0.06276397,0.0009881277000000001,0.04268555
-0.01048172,0.01204067,0.06386119
-0.01248289,0.04040261,0.10926720000000001
-0.05730732,0.03006957,0.08828259
-0.04455923,-0.08426868,0.0352094
0.03347265,-0.1732726,0.001502025
0.03854676,-0.1630906,-0.03284505
0.09196595,-0.1421944,-0.06208065
0.01654365,0.02130272,-0.08184735
0.0806305,0.008791203000000001,-0.1065136
0.045841,0.04910397,-0.11694919999999999
-0.0003325418,0.07725777,-0.08917316
-0.002062216,0.08421311,-0.08691824
-0.03476975,-0.1346008,-0.04362763
-0.1282254,-0.09036574,-0.09455497
-0.1103076,-0.13627170000000002,-0.06530784
-0.03483091,0.00997892,-0.08859172
-0.01882555,0.1958686,-0.09846568
-0.01291959,-0.03873946,-0.02764496
0.06385832,-0.07118797,-0.05402812
-0.01756809,0.01360173,-0.04762363
0.02976733,0.2632408,-0.07247344
0.08043404,0.16318570000000002,-0.03910777
0.002580278,0.1895874,-0.03090687
-0.04519559,0.0009716897999999999,0.06791271
0.06889462,-0.01870903,-0.01513143
0.01110359,-0.10720879999999999,-0.02703828
-0.01682337,-0.07451266,-0.07010223
0.001473919,-0.03167023,-0.05897216
0.06002235,0.02438692,-0.02711509
0.05244386,0.00108476,0.01091027
0.00666866,-0.08155639,0.01918535
-0.029307299999999998,-0.06789434,-0.01281459
-0.01905668,-0.01586804,-0.04216988
0.009040636999999999,0.01218532,0.002754365
0.009627047,0.01176103,0.01134772
0.03797872,-0.01897487,0.04876415
0.04965184,-0.01232977,-0.01556624
0.01157846,0.0332181,-0.007450867
0.0002723392,0.04000688,0.01090281
0.01718685,0.004726657,0.02484445
0.04172884,-0.06733643,0.04501671
0.06169774,0.01831359,0.02487895
-0.01055123,0.015129499999999999,0.05098175
-0.05483918,0.02152946,0.06665106
0.02190541,0.10610239999999999,-0.0006310352999999999
0.001174983,0.01781375,0.04235548
0.03524624,0.028593900000000002,0.03687441
0.01272755,-0.03460922,0.06702875
-0.004010437,0.00888055,0.0614124
0.002922442,-0.03056606,0.05903491
-0.04368905,-0.04084666,0.05904776
0.0191835,-0.06038079,0.05271507
0.011767200000000002,-0.07545083,0.03186159
-0.004007358,-0.07773103,0.05221418
-0.00428159,-0.06364323,0.02798698
0.01783145,-0.03137179,0.007796893
-0.01622267,-0.0004598815,0.001749516
-0.03507443,0.03143811,0.02393129
0.02517192,0.02654059,-0.02585607
-0.005704432,0.0037678309999999997,-0.02366158
-0.01595444,0.08062736,-0.009892775
0.01406221,0.01056623,0.01133571
-0.04482118,-0.0063560909999999995,0.002688007
0.004319445999999999,-0.02787217,0.030498
-0.03700138,0.02262115,0.003229653
0.05512887,-0.007787355,-0.03694911
0.03546641,-0.03355996,-0.01780973
0.06707481,0.02292355,-0.04057204
0.03831473,0.001954715,-0.02396514
0.042243699999999995,0.02840999,-0.04454466
0.02546409,0.00258112,-0.02418713
0.006013556999999999,0.02097501,-0.009094754
-0.02344574,0.01765092,-0.02542321
-0.06972641,-0.06432135,0.01178405
-0.03253467,-0.01962657,-0.01388951
0.03560665,0.04153516,-0.04763111
-0.02836714,-0.01139858,-0.0220889
0.05406275,0.02939226,-0.04492733
0.00415145,-0.02127759,-0.02916747
-0.027367000000000002,-0.0008922816000000001,-0.02700644
-0.03833473,0.004367664,-0.02268236
0.02171157,-0.01971991,-0.04797323
-0.02659657,-0.05026213,-0.01440473
-0.04557289,-0.01658748,-0.02138802
-0.009065702,0.0008372972,-0.01845453
-0.0001156891,-0.03957427,-0.0056316180000000006
0.002192155,-0.001986027,-0.01490264
0.02248851,-0.02118193,-0.01904387
-0.007504354,0.07917376,-0.01696517
0.001779591,0.04585208,-0.005148333
-0.02839288,0.03483248,0.009590919
0.02110535,0.0152014,0.001023211
-0.06289557,0.02547384,0.03742585
-0.03770575,-0.02304044,0.01714951
0.003900363,-0.06661784,0.02649627
-0.05887691,-0.03993351,0.04946876
-0.05423494,-0.04529583,0.05419349999999999
0.0070404180000000005,-0.02765065,0.02953963
0.01306705,0.01609906,0.02635661
0.03607297,0.006683972,0.0317098
-0.07810486,0.03840932,0.04195876
-0.03101078,0.047488499999999996,0.04236707
-0.01340679,0.01752632,0.03315071
-0.002781725,0.04789709,0.02341804
0.007174884,-0.02768619,-0.006643685
-0.03157363,-0.07900491,0.008512144000000001
0.02466113,-0.04905913,-0.01222778
-0.03013987,-0.015107399999999998,-0.01340462
0.03188944,0.04229393,0.0025570320000000003
0.0033131090000000003,0.01320558,-0.006841258
-0.01790814,0.01326248,-0.008156341999999999
0.03959248,0.0064319369999999996,-0.00527777
0.02234544,-0.001174066,0.01282432
-0.00034230160000000003,0.006116054,0.02120418
0.05000318,-0.0364885,0.01988656
0.02123825,-0.01935949,0.005864261
0.04613631,-0.02304691,-0.0037609709999999997
0.008824984000000001,-0.02163228,0.01488711
0.02714552,-0.02230651,0.01182425
-0.01709539,0.00254381,0.03814321
0.05466093,0.0110845,0.004211864
0.00932028,0.01477379,-0.02471213
0.05144458,-0.02992698,-0.02484993
-0.03402771,0.01132565,-0.02225939
0.01019158,-0.005427528,-0.02118392
0.01320155,-0.008039914,-0.01972976
0.008371227,0.0342957,-0.04851744
0.03160438,0.01674831,-0.02936402
-0.07734612,-0.03683624,-0.01135166
-0.01066898,0.01793179,-0.01952678
0.03170497,0.05046099,-0.01487646
0.01468202,0.04829537,0.01574279
0.028524400000000002,0.01215014,-0.03483514
0.01866654,-0.02426114,-0.02530194
0.02447894,-0.01766015,-0.03080878
-0.001241783,0.01836711,-0.03787982
-0.0002000825,-0.01114758,-0.02756876
-0.003371354,-0.005110331,-0.03301648
-0.04661179,0.01106989,-0.03790161
-0.02049454,0.02494542,-0.02554021
0.006555035,-0.0136701,-0.04142312
0.00250414,-0.04319035,-0.03977359
0.01067494,-0.0001151692,-0.03749388
-0.01072383,0.03623746,-0.023599400000000003
-0.05547976,0.05391339,0.003479393
-0.01047113,0.01402163,0.007822894
-0.03656502,-0.03226257,0.022736199999999998
-0.05934980000000001,-0.05274582,-0.004417557
-0.005817989,-0.07922024,0.01930494
-0.02723351,-0.008308307,0.01947934
0.00615106,0.02958427,0.0347953
-0.01088672,0.03719244,-0.02942584
-0.07845819,0.02222142,0.05220824
-0.05773693,0.05086164,0.06288907
-0.02683148,0.03155556,0.004265718
-0.03180441,-0.1123923,0.01146301
-0.01520191,-0.05569957,-0.01564909
0.03776858,0.03751645,-0.0243424
-0.01795759,-0.03059065,0.01821721
0.0028801440000000003,-0.01739966,0.0061029940000000005
0.003010234,-0.06551186,-0.02715112
0.03183848,-0.11936949999999999,-0.009029454000000001
0.0279038,-0.08736716,0.01135411
0.00648372,-0.03426526,0.02023768
0.03755634,-0.1726934,0.05216847
0.01759045,-0.12069239999999999,0.01793201
-0.03852412,0.007991269,0.01189011
-0.07017077,0.03199776,0.0576707
0.009286109,0.04320424,-0.007562439000000001
0.06482196,-0.0491995,0.02068885
0.0641389,-0.04469549,0.02118249
-0.01887156,0.04499882,0.02758005
-0.007557566999999999,-0.04101434,0.1241704
0.005749455,-0.00304113,0.05358331
0.01240482,0.01532847,-0.03116187
-0.02933672,-0.12875419999999999,0.07176031
0.01285768,0.030104200000000005,-0.03326326
0.0393225,0.04423416,-0.02769144
-0.008671179000000001,0.08770858,-0.02875903
0.07337252,0.05800166,-0.01662757
0.01399622,0.10061110000000001,-0.03381577
0.003371999,0.05674863,-0.01665157
0.04802308,-0.01087421,-0.01438603
0.02154484,0.07281956,-0.017573099999999998
-0.02182023,0.06931785,-0.002385125
-0.01846439,-0.03478488,-0.007014169000000001
0.02842589,0.06427476,-0.06741372
0.08933897,0.04577766,-0.05882342
0.07555087,-0.09577176,-0.03365624
0.04683558,0.03872946,-0.04885993
0.03103918,0.02257245,-0.03459747
0.05384495,0.03026441,-0.02290696
0.05965876,0.05615333,-0.03337497
0.03542525,0.006790715,-0.01892757
-0.006585934,-0.05006786,-0.006937006999999999
-0.002435394,0.01301002,0.008412988
-0.005785487,-0.0006467775,0.04218463
-0.06515472,-0.0061029940000000005,0.01863037
-0.009459179,0.0149935,0.03069897
-0.003239376,-0.04670015,0.01118411
-0.01005412,-0.08491299,0.02583725
-0.05824384,-0.06933814,0.0013253170000000001
-0.01110348,-0.0008928627,-0.02736394
-0.0102156,-0.0019488860000000002,0.003623999
0.02309266,-0.01208705,-0.01147052
0.02392836,0.02182718,-0.03541644
0.03020363,-0.02176387,-0.02030089
0.01472633,-0.01240248,-0.05502446
0.01155998,0.02131767,-0.05089619
-0.008522272,0.02586146,-0.05468483
-0.02845431,0.05359686,-0.03835269
-0.0032933579999999997,-0.006758824,-0.01604124
0.00166438,0.05274575,-0.07440427
-0.0004527764,0.03578842,-0.03957326
0.01854919,0.0104674,-0.03794616
0.05171118,0.03065829,-0.03936658
-0.02299906,0.04268802,-0.04225081
0.039325099999999995,0.02286026,-0.03230823
0.007204594,0.06115852,-0.03295203
-0.03659499,0.05894159,0.0167666
0.01587718,0.008424392,0.02928522
0.0070536290000000005,0.0015834870000000002,0.0008882873
-0.04522489,-0.02193224,0.006400399
-0.02922375,-0.06251834,0.03997875
-0.03136892,-0.00498363,0.01088712
-0.04657014,-0.0257255,0.0505015
-0.02229464,-0.01642863,0.02497295
-0.02388546,-0.004639003,0.02289722
-0.05549703,-0.004523559,0.01598678
-0.01658861,-0.01210353,0.01780607
-0.01563581,-0.02437287,0.01428021
-0.042625800000000005,-0.00760097,-0.01215873
-0.03807317,-0.001467385,0.01842717
-0.03555406,0.012707600000000001,0.02690847
0.02811268,0.004170069,0.01695814
-0.002634488,-0.01298851,0.0166123
0.026431200000000002,0.01623923,0.00777865
0.005196691,0.0005862322,0.01621093
0.004731153,-0.004535386,0.01866983
0.0319223,-0.002566569,0.01851314
-0.0425793,0.02788814,0.01354236
-0.01281077,-0.01063171,0.02166313
-0.01742038,-0.02765664,-0.00036290519999999997
-0.007956853,0.02895465,0.01101209
0.0299723,-0.005340099,-0.02135541
0.02757803,-0.01496667,-0.01321659
0.02814982,-0.01179536,0.01700958
-0.0005804569999999999,-0.00036154019999999994,-0.03205764
-0.02012021,-0.03688389,0.01630612
-0.01864769,-0.01554729,-0.02098848
0.01920818,-0.004186624,-0.006949865
-0.02822815,0.0173886,-0.01374186
-0.008781549,-0.007075707,0.0019663239999999998
-0.003016941,0.01037972,-0.0063472269999999996
-0.02642579,-0.01904933,0.00944788
0.012598200000000002,-0.004956117,0.01690358
-0.02899138,-0.01741395,0.02186076
0.02494163,-0.005429811999999999,-0.01673246
0.02130952,-0.01863892,0.01185831
0.01676606,-0.03147571,0.0066072990000000005
0.02306603,-0.03073206,-0.02992176
0.04083841,-0.008695831999999999,-0.03331467
0.04620428,0.02767011,-0.005750008000000001
0.007523661,0.02386412,0.007804124
0.03153127,0.02978917,-0.01504194
-0.01647407,0.05469336,-0.03722239
0.004553236,0.02305241,-0.004870418
0.04084016,0.02014855,-0.01435596
-0.04658456,-0.03997127,0.01908946
-0.02095213,0.05817069,-0.004575336
-0.01996328,0.05406022,0.02305325
-0.05439717,0.02197178,0.04355141
0.003502373,-0.03603877,-0.01163218
0.02403145,-0.05870109,-0.01470833
0.02250823,0.03934,-0.04535546
0.02814379,-0.007150505,-0.01195484
0.02701683,0.006830438,0.008596771
0.02280229,-0.01373674,-0.005390945
0.03032612,-0.04251061,-0.001167635
-0.007734259,-0.020786000000000002,-0.01522736
-0.03338498,-0.05512621,-0.004424504
0.01633686,0.007960429,-0.03950031
0.0022573610000000003,0.00592473,-0.004667194
-0.04163303,0.02611772,0.008614667
-0.006111391,0.004661388,0.005164292
-0.03494025,0.03514221,0.006504555
-0.002141112,-0.002839129,0.009966763
-0.06307862,-0.04006463,0.008155006999999999
0.002690365,0.02987442,-0.02980013
0.04935372,0.01142333,-0.01005211
0.03537927,-0.00750953,-0.03098144
0.03168295,-0.04915176,0.006836910999999999
0.01026148,0.03300594,-0.006600847
0.003133113,0.007852808000000001,0.02595848
-0.01528163,0.03246306,0.04153875
0.02116625,0.04814754,0.03180949
0.04532922,0.0388063,0.05246441
-0.01486039,0.06730185,0.06182554
-0.04906349,-0.06620362,0.09388222
-0.09930299,-0.08149944,0.006348281999999999
-0.04176105,-0.09166539,-0.04659069
-0.05713852,0.05245304,-0.02592261
-0.006412946,0.04068004,-0.0052553719999999995
0.02143311,0.04994215,0.02692967
0.01019331,0.01937266,0.04645767
-0.02369945,-0.04700226,0.02207469
0.02378958,-0.0851495,-0.02824507
0.01180859,-0.1139469,-0.01726325
0.01703489,-0.06998656,-0.03520065
0.008291101,-0.1282107,-0.01867851
-0.03291511,-0.08487713,-0.02264705
0.02629339,-0.08510337,-0.01131707
0.03166405,-0.07114808,-0.05059447
0.06449767,0.0460092,0.0001512375
-0.05606043,0.1070337,0.04900719
-0.04595535,0.04618571,0.02056248
-0.01565588,-0.04790422,0.0003613401
0.04563718,0.08122682,-0.04032875
0.01336302,0.107242,0.04962408
-0.0185251,-0.006797209,0.07493246
0.02925294,-0.07146415,-0.01881291
0.05652345,-0.07837862,-0.043033
0.06269497,-0.05380778,-0.03886789
0.0238217,-0.03783518,-0.01941589
0.0008759191,-0.0263211,0.02535361
0.02985535,0.03312303,0.08613952
0.02121319,0.08112939,0.1052221
0.02914445,0.01924174,0.024409599999999997
0.04045795,-0.05373287,-0.05764879
0.05295656,-0.01925573,-0.06202634
0.04639643,0.1237222,-0.05495799
0.0336946,0.10325989999999999,0.002836146
-0.008028772,0.04520778,-0.00663238
-0.03454372,-0.007915789,-0.04496665
0.02874747,0.06300418,-0.07349011
-0.002541021,0.1076126,-0.03964657
-0.02716626,0.1638967,-0.03722901
-0.01847397,0.03691029,0.02727614
-0.0060646,-0.02698191,0.02548081
-0.0376579,-0.09310039999999999,0.03396295
-0.04900821,-0.1104165,0.001325345
0.016867,-0.01060807,-0.0006566551
-0.03361777,0.01131653,-0.01524415
-0.01656454,0.01333551,-0.03691732
-0.008174615,0.0006779450999999999,-0.07001027
-0.003691235,0.0035286009999999997,-0.03875856
-0.01643681,0.01886541,-0.05652139
-0.001462972,-0.004432516,-0.07584584
-0.02546658,0.030848700000000003,-0.0670817
-0.005256915,-0.02557269,-0.03230587
-0.05630369999999999,0.01470867,-0.0262448
-0.006568658000000001,-0.0136513,-0.03328934
0.04528436,-0.003236137,-0.01353612
0.02001424,-0.03082305,-0.01058148
-0.01126691,-0.04704338,-0.003073215
0.01338381,-0.0018477629999999999,-0.03754341
0.00453536,0.035988,-0.03568693
0.0073425040000000006,0.03001065,0.015995500000000003
-0.009497595,0.001523219,0.03834874
0.02312146,0.0027436540000000003,0.008501984
0.01664083,-0.04157848,-0.00042488190000000004
-0.01396754,-0.04786035,0.00148495
-0.03675456,-0.04226597,0.02723772
-0.02318472,-0.0061558509999999995,0.02540706
0.009117087,0.02535668,0.005219461
0.02368662,-0.02471248,0.02582582
-0.05981999,-0.02446772,0.03614149
-0.05904606,-0.06581704,0.05428512
-0.04518661,-0.03687794,0.03118383
-0.04264087,-0.03197147,0.04624324
0.01055381,0.03407945,0.04378963
0.0008562830999999999,0.02422094,0.02502277
0.02079137,-0.02946024,0.02226973
-0.016442599999999998,-0.03103096,0.02913628
0.02151053,0.001316892,0.008599592
-0.01857587,0.03586455,0.02644677
-0.01693409,0.02258172,0.04476457
-0.03141578,-0.02293506,0.0458041
0.01739373,0.02331901,-0.007185300000000001
-0.02801831,-0.02647653,0.01951963
0.0396811,-0.03412224,-0.01085522
0.01692822,-0.0493749,0.0041222459999999995
0.03791741,-0.0016575160000000002,0.009108485999999999
0.008912583,0.02778381,-0.009801876
