Acc_x,Acc_y,Acc_z
0.03071819,-0.06858718,0.01491904
0.002499255,-0.02223257,-0.009563143
-0.03630498,-0.0034520640000000003,-0.01259159
0.02646976,-0.0464242,-0.01747232
-0.03968433,0.009670362,-0.02156315
0.00940545,-0.01720551,-0.03101409
0.0117498,-0.04225847,-0.0325458
-0.01626259,-0.002246526,-0.04776727
0.0044921679999999995,-0.01878399,-0.03243156
0.02876185,-0.01858125,-0.03927114
0.02380083,-0.04017179,-0.002907685
0.0251583,-0.01342755,-0.0157953
0.013390700000000002,0.00564345,-0.00919787
0.02111027,-0.00430362,-0.005589033
0.01356055,0.04174678,-0.01078376
0.003236568,-0.01989716,0.05574652
0.00756036,-0.02205103,0.02263402
-0.02970392,-0.0417205,0.02994573
0.02002322,-0.03980677,0.01513301
0.0190102,-0.07309765,0.03934899
-0.02308232,-0.07988461,0.02344327
0.02832198,-0.10534629999999999,0.01356373
0.01048837,-0.08297221,0.02373692
0.0005415692,-0.05867428,0.01601751
-0.02547403,-0.03368388,0.01770431
-0.02376563,-0.03942985,-0.0009066677
0.01616062,-0.01450284,-0.004526255
0.008192394,-0.02519439,-0.006745574
-0.01130375,0.008063883,-0.01956053
0.01422038,0.00653206,-0.04846599
0.0005352935,0.02065991,-0.02540706
-0.02165406,0.007414245999999999,-0.02006536
0.003863364,-0.007154685,-0.02889531
0.0031582259999999997,-0.01882501,-0.02778034
0.009206151999999999,-0.01659696,-0.04694464
-0.04137187,-0.03917298,0.01311437
-0.03916778,-0.0841371,0.01877259
-0.02593575,-0.0691005,0.01063044
-0.01198177,-0.03888521,0.01033468
-0.006605811,-0.008713771,-0.002926217
-0.03467759,-0.04690053,0.03180346
0.01302576,-0.05912287,0.01086844
0.007566964,-0.06261428,0.0121697
0.006779686,-0.007448744,0.03401082
0.03726845,-0.05334834,-0.01752412
0.01558584,-0.05359274,0.01896537
0.02125851,-0.03026554,0.006405421
0.02077607,0.0193021,-0.02356268
0.006183968000000001,-0.003113206,0.008275509
0.0323363,-0.02279374,0.01409092
0.007778492,0.03410838,-0.01519468
0.04413612,-0.04508194,0.007235017
0.0107997,-0.03605944,0.01464211
-0.007680905,-0.01089395,-0.02244925
0.0032146320000000003,-0.05907866,0.01604633
0.03550959,-0.01436241,0.01217985
0.03367198,-0.02273399,0.01406664
0.05760041,-0.01715902,0.01436679
0.01091223,-0.05821709,0.04276612
0.00321069,-0.004713692,-0.04401915
0.03323478,-0.003227883,-0.00894394
-0.01814088,-0.06451784,0.02458192
-0.03011056,0.039175800000000004,-0.020254499999999998
0.01082728,-0.030637400000000002,-0.00535526
-0.01370501,-0.04156015,-0.007766725
-0.004378454,-0.0183577,-0.03474595
-0.015199899999999999,-0.01064035,-0.04486072
0.002035379,-0.03385559,-0.02938903
-0.03537773,0.03364646,-0.020609400000000003
0.0105664,-0.0361594,-0.009666303000000001
0.03172128,-0.03425119,-0.01946981
-0.003763571,-0.01871176,0.01238943
0.02381077,-0.01195795,-0.03818211
0.02720795,0.02233771,0.009817304
0.02906791,0.04957507,0.02099499
0.02685826,0.006617434,0.02503328
-0.0012668,-0.0021309000000000002,0.04451416
-0.041252699999999996,0.02406035,0.02887082
0.03570629,-0.0403545,0.02049946
-0.01260328,-0.08331854,0.016474799999999998
-0.02808532,-0.08157852,0.01668851
-0.05976385,-0.01056834,0.05138852
-0.08607392,-0.02122172,0.06324942
0.001444004,0.03195732,0.02849313
0.02587776,0.01943131,0.03902381
-0.02668403,0.04006835,0.0507555
0.001058401,0.02945725,0.03296508
0.003256099,0.04737408,0.05477476
0.04889946,0.05311029,-0.0017423570000000002
0.007493415,-0.06114396,0.007877367
-0.04207938,-0.04860649,-0.04532163
0.01866984,-0.1547626,-0.05648312
-0.03152357,-0.11286889999999998,-0.08018185
0.02738548,-0.13979520000000004,-0.0308574
0.01754516,0.05568724,0.02149406
-0.08844057,0.2240387,0.13008540000000002
-0.02490947,0.05420697,-0.0131011
-0.06793295,-0.06415607,0.009264639
-0.03475185,-0.06553246,-0.09171996
0.04780889,-0.07375436,-0.09857639
0.009312851,0.0011599610000000002,0.024216099999999997
0.04399163,-0.138674,0.02528366
-0.005223123,-0.01549532,0.00681376
-0.002178986,-0.02600603,0.00694993
-0.0038274579999999997,0.02565994,-0.04510002
0.01006025,-0.02214997,-0.0009777565
0.02843395,0.04453213,-0.0060117
-0.01893179,-0.02550696,0.01128375
-0.03384354,-0.06277511,-0.01273986
-0.01132656,-0.16351300000000002,-0.004815195
-0.0094052,-0.11186010000000002,-0.05406056
0.018721900000000003,-0.06611039,-0.0267216
-0.05372836,0.07847092,0.034961900000000004
-0.01561657,0.03995266,-0.0350545
-0.05554492,0.007410786999999999,0.0620952
0.02716627,0.00784965,-0.04742018
0.01069408,0.03682679,-0.09567492
0.04704905,-0.01691979,0.0385032
0.00827566,-0.01831711,-0.06561539
0.01024877,-0.05657521,-0.001424816
-0.02081302,-0.03501192,-0.004304514000000001
0.03332271,-0.03643803,-0.08739725
0.0167049,-0.00863757,0.02883139
-0.02676774,0.005141601,-0.1105932
-0.01210529,-0.0796143,-0.08668129
-0.0440717,-0.05880061,-0.02436225
-0.013030200000000002,0.046380199999999996,-0.08875565
0.03161228,-0.03857543,-0.007807397
0.007289677,-0.07223108,0.03891114
0.03293817,-0.02335432,0.03552955
0.01407526,-0.03824883,0.006629517
0.02777509,-0.07493355,0.01804931
0.0030685609999999996,-0.03087426,-0.0005955598
-0.006109903000000001,-0.05036997,0.03471042
0.05639856,0.01557981,0.02638463
0.05152943,0.0009471776,0.01256522
0.03553416,-0.04878839,0.04303503
0.02854641,-0.009257253,0.01242618
0.03828403,-0.05268657,-0.0014681779999999999
0.01518948,-0.03170934,0.01449862
-0.008265223,-0.0485134,0.06085781
0.0005198008999999999,-0.03759449,0.06106687
0.001221694,-0.09106003,0.0023388239999999998
0.0033084359999999997,-0.05382002,-0.02065454
-0.006730074,-0.05015143,0.01046791
0.0056138690000000005,0.01460247,-0.00040264379999999995
-0.03623488,-0.03412854,0.01646645
0.02336982,-0.007308904000000001,0.004295957
-0.0066684859999999995,0.01325669,-0.005743255
-0.002014858,0.01886881,0.001325095
0.01774002,-0.0039455259999999995,0.01334347
-0.04652835,-0.003924996,-0.00435074
-0.03510233,-0.009420388,0.01543499
-0.04661644,-0.014097899999999998,0.024503900000000002
-0.03170297,-0.03965796,0.01836818
-0.03268428,-0.03473098,0.01931211
-0.01152321,-0.03645597,0.02086551
-0.03556547,-0.04703865,-0.00673416
-0.05541936,-0.06151726,0.01014598
-0.04671526,-0.04647169,0.02085844
-0.03985365,0.01305517,-0.01284379
0.008398345,-0.05417655,-0.02831955
-0.06171523,-0.05547265,-0.008277914
0.006847603000000001,-0.008581346,-0.05242149
0.02982135,0.004050085,-0.04715012
0.005029979,-0.003995894,-0.01685319
-0.02910354,-0.0052103340000000005,-0.02949016
-0.007044905,0.02218602,-0.03427491
0.04721993,-0.003416292,-0.03906172
-0.006972720999999999,-0.002072141,-0.03256499
-0.01776358,-0.01094091,-0.01365946
-0.004475336,-0.007299506,-0.01477225
-0.009903264,-0.04372430000000001,0.01109363
0.0008446963,-0.05234681,-0.0103651
-0.009865764,-0.03698473,0.00514921
0.02206391,-0.04039512,0.02392369
0.02465714,-0.01316852,0.03999507
0.02779905,0.002068623,0.03417384
-0.01485713,-0.03511655,0.04615429
-0.006609746999999999,-0.02758066,0.03573072
0.04124404,-0.002126185,0.01058074
0.05089778,-0.06232862,0.02766958
-0.01274587,-0.04970507,0.03786816
0.03471204,-0.05413586,0.01177621
-0.01015587,-0.05668926,-0.008537858
-0.008795874,-0.05126026,0.005991018000000001
-0.03297989,-0.06430638,0.01189157
-0.01803566,-0.013553999999999998,-0.007827619000000001
-0.02537797,-0.05784088,0.007679224
-0.01229921,-0.03427021,0.02167941
0.007086251,-0.01826001,0.0043945090000000004
-0.005840906999999999,-0.036977499999999996,0.008755942
-0.01420575,-0.00773722,0.0060633480000000005
0.01926548,0.008213078,0.0009723846000000001
0.0036215609999999997,0.04670154,0.006540204
0.05835225,-0.005446933,-0.0104303
0.06822827,-0.04201274,0.004959883
0.01421946,0.008933858000000001,0.01557522
0.05266149,-0.03297837,-0.0023996589999999997
-0.01953055,-0.03994887,0.01894519
-0.03865557,-0.05284997,-0.003353976
0.007883563,-0.06714968,-0.0001362665
-0.0037028029999999997,-0.03872186,-0.02246691
-0.01062351,-0.04780288,-0.01297094
-0.003936461,-0.01339353,-0.02890797
0.03813611,0.01279175,-0.03467405
-0.02939083,-0.03804569,-0.0037323829999999997
-0.01905033,-0.00287175,-0.01128433
-0.01800859,-0.005571349000000001,-0.0004940787
-0.004915465999999999,-0.04053638,0.001212021
-0.02678164,0.00674097,-0.03372393
-0.0009256452000000001,0.002952555,-0.02623837
0.004763091,-0.05570991,-0.01936124
-0.03494471,-0.01436216,0.000157631
0.02849116,-0.02556888,-0.0476542
-0.02458654,-0.04714773,-0.03126964
-0.01884935,-0.05217627,-0.00912622
-0.05099218,0.02128507,-0.01880009
0.0166201,-0.01677261,-0.00347378
-0.004940754,0.004543154000000001,-0.01981912
0.0277387,-0.01148998,-0.03141439
-0.004331895,-0.01758989,-0.02209872
-0.03430125,0.02514828,0.0004809508
0.01411044,-0.008799964,-0.0028777190000000004
-0.02200505,-0.001225676,-0.01269645
0.002767364,-0.01633782,-0.0007463325999999999
-0.009412284,-0.02018892,-0.00530361
0.03098904,-0.03380428,0.01845479
0.009575736999999999,-0.01457821,0.01108504
0.029407599999999996,-0.05358794,0.002157336
-0.00180689,-0.005222719000000001,0.005907345
-0.01016868,-0.01465532,0.03005877
-0.02219371,-0.0005150996,0.01057336
-0.006347511,-0.04072943,0.0496017
0.01688205,-0.05462895,0.05912256
0.03066648,-0.0069158859999999996,0.05652969
0.01819437,0.01811824,0.05669047
0.02412442,-0.03354235,0.09100855
0.01859497,-0.01478895,0.08147691
0.006892059,-0.05888241,0.04323187
0.02203593,-0.06215549,0.03514844
0.002072777,-0.07706153,0.01579674
0.0527048,-0.01385846,-0.01886125
0.0003592146,-0.03644689,0.003900399
0.00017839790000000002,-0.0616535,-0.008442008
-0.03723186,-0.06228271,-0.1040039
0.035606099999999995,0.03253289,-0.11420510000000002
-0.009000546,0.01778235,-0.05102357
-0.03393295,0.03797343,-0.04606642
-0.014135,0.04671596,-0.12415280000000001
-0.006406168,0.02838494,-0.05847357
0.01321454,0.1089258,-0.174522
-0.004141718,0.009271663000000001,-0.09262839
0.02459123,-0.01844064,-0.06628112
0.00835539,0.06862348,-0.1313692
0.05453399,-0.0005513951,-0.01467941
0.01625603,-0.08300257,0.02103135
0.02750095,-0.06794673,-0.006840134
0.01359762,0.002599877,0.0162815
0.04211217,-0.01143216,-0.02723403
-0.01327024,0.03493769,0.001803071
-0.00804281,0.18303339999999998,-0.0120471
-0.02199738,0.0076204459999999995,0.1049941
0.03660372,-0.1361723,-0.04105156
0.0026314579999999997,-0.1720066,0.005410147
-0.02293782,-0.00032112009999999997,-0.04506978
-0.01523147,-0.1390626,0.09826239999999999
0.02373768,0.001077183,-0.03365891
0.01637707,-0.001045937,-0.0297866
0.02407934,0.04805815,-0.0001694448
-0.005804777,-0.014595799999999999,0.01635295
0.01726127,0.04285907,0.04149978
-0.04649021,0.08194494,0.027371
-0.0066517780000000006,-0.07675955,0.10204099999999999
-0.03845865,0.04167374,-0.03233519
-0.04368256,-0.09950402,0.02333942
-0.01329074,-0.07405924,0.04915244
-0.04036018,-0.10301379999999999,0.03700177
-0.06656394,0.04135727,0.01211592
-0.05594601,-0.02695681,0.01545845
-0.03293783,0.03887608,-0.008090199000000001
-0.004362922,-0.00171362,-0.06000598
-0.005471423,-0.03541927,0.039743099999999996
-0.01038002,0.002767988,-0.03171277
-0.02223594,0.02150045,-0.06380287
-0.002787202,-0.01499453,0.02304025
9.967689000000001e-05,-0.05123988,-0.007731821999999999
0.02164668,0.06972829,-0.08893494
0.02298339,0.01251979,-0.01765119
0.009018105,-0.0028469529999999997,0.04933534
0.01490582,-0.03307078,0.02423485
0.05006856,-0.05698235,-0.03713391
0.03263868,-0.0849796,0.008113143
0.03347892,-0.08565416,0.022752500000000002
-0.008882428000000001,-0.055982000000000004,0.03029865
0.03821488,-0.03672273,0.03225417
0.003084998,-0.02232951,0.01495051
-0.02375796,-0.04664355,-0.001260531
0.02538947,-0.06052324,0.01805073
0.02726921,0.000582289,-0.01227308
-0.002617459,-0.01389943,0.005537261999999999
0.01494297,-0.04904599,-0.0048379370000000005
0.019459,-0.07362198,-0.01136803
-0.01087764,-0.06153755,-0.01404637
0.03155497,-0.04970426,-0.03480719
-0.01003394,0.01850871,-0.007836333000000001
0.01594709,0.03905791,-0.009895412
-0.007401451,0.0005523851,-0.001951805
0.002853975,-0.003542585,-0.02969648
0.004848826,-0.06251547,-0.00818822
0.04585116,-0.04286201,-0.03354066
-0.01544664,0.06000569,0.007230541
0.02183408,0.04255794,0.01119903
0.04633346,0.03956521,0.009391807
0.003370995,-0.008888964000000001,0.01936517
-0.01150067,-0.03343635,0.02816346
0.04930779,-0.04995491,0.008266306999999999
0.00951486,-0.0572686,0.03072604
0.02433106,-0.04047619,-0.001764647
0.03365787,-0.03938052,0.0377587
0.0002135499,-0.0072864359999999994,0.0105804
-0.01638787,-0.042402499999999996,0.01483851
0.02141575,-0.03452379,-0.01064405
0.003472126,-0.0117527,-0.01394096
0.03883016,-0.0316353,-0.02015113
-0.006522078000000001,-0.003765523,0.00174808
-0.01083538,0.0180097,-0.008884702
-0.02973362,0.009446817,-0.0025924520000000003
0.0039907020000000005,-0.01226086,0.00020761869999999998
-0.02109637,0.01433916,-0.03194297
0.0041092559999999995,-0.04033583,-0.0126428
-0.02299059,-0.03469778,-0.03682882
-0.05276148,-0.03126702,0.005827716
-0.01280875,-0.04139980000000001,-0.01035434
-0.02656627,-0.03410505,-0.03471629
0.01873351,-0.06577494,-0.0165663
-0.005415189,-0.03490016,-0.03941373
0.0391884,-0.05753864,-0.01128879
0.002846509,-0.009939048,-0.02704366
0.02899934,-0.04396831,-0.02189037
0.04985704,-0.04107467,-0.00609004
-0.03762668,-0.02717065,0.02132534
-0.01333253,-0.03144279,0.01871744
-0.02933619,0.0038024459999999997,-0.008337525
0.01752315,0.02356859,-0.03282427
-0.011542299999999998,-0.02963574,-0.003766372
0.01277034,-0.008315469,-0.0066578390000000005
-0.02379658,-0.02903035,0.02865731
-0.03075076,0.01928714,0.003845535
-0.03048692,0.0172888,-0.0005341861
-0.01493345,-0.05086239,0.0481775
-0.03016639,-0.02965332,0.02743196
-0.01021919,-0.03580903,0.05314109
-0.01160794,0.0007618777999999999,0.04225484
-0.01252231,-0.08467907,0.05636184
-0.007647035,-0.022460900000000002,0.01232112
-0.02331448,0.01543805,0.008998951
-0.006394414,-0.02125167,0.01548499
-0.008952521,-0.03196292,-0.0028961090000000004
-0.007277685999999999,-0.02999327,-0.02957073
0.02710165,-0.03099645,-0.03506572
-0.02200359,-0.02424262,0.003590581
-0.004459179000000001,-0.01461254,-0.03861425
0.0026105539999999997,-0.03500152,-0.02096425
-0.0198768,-0.01468465,0.0018044379999999998
0.01298854,-0.006481385,-0.03383458
-0.01012173,0.01326721,-0.01860122
0.02638329,0.01955119,-0.02313925
0.03026824,0.0150409,-0.02881003
0.04874919,0.02826911,-0.02135413
0.035144800000000004,0.005486291,-0.006266086
0.003123073,0.003856885,0.01059806
0.001795876,-0.00446659,0.0003022955
-0.005666345,-0.02337242,0.02794515
-0.006600993,-0.03168452,0.01046848
-0.01433739,-0.03799567,-0.0009090863
0.02489739,-0.06376068,-0.01040258
-0.02250241,-0.07442152,0.04181299
0.02004651,-0.08348743,0.02986885
-0.007931087,-0.0466916,0.04436206
0.02597566,-0.03735392,0.03757569
0.004565354000000001,-0.005720421999999999,0.05658952
0.03936519,0.00815539,0.03683511
-0.02890925,-0.04191939,0.06515682
-0.008995714,0.0016277379999999999,0.01459426
-0.01370902,-0.01408848,0.02636083
-0.02800973,0.02893914,0.02167125
-0.03125821,-0.01676183,-0.009030256
-0.00758912,0.001309344,-0.01764211
-0.02233854,-0.006386971,0.005874848
-0.03176675,-0.04971755,0.002850077
-0.04822637,-0.05178326,-0.002721645
-0.051263,0.05462088,-0.02870335
0.0005563728,-0.07557931,0.0014084820000000002
-0.05002461,-0.02505565,-0.05229381
-0.006649604,0.02640945,-0.07054084
-0.02302402,0.03069299,-0.05918829
0.00616134,0.02821977,-0.06640948
0.02245254,-0.02290112,-0.05031412
-0.03132178,-0.003051165,-0.0391409
0.009157582,-0.02903323,-0.03388743
0.00496622,-0.0194187,-0.04596304
0.002204886,0.04156343,0.0132495
-0.02425219,-0.1292263,0.08175837
0.002085267,-0.21791649999999999,0.07324213
-0.1140913,-0.1604034,0.05232012
-0.06377543,-0.1062944,0.03963182
-0.1291901,0.0006289594,-0.04192828
-0.1082617,0.03105491,-0.09991562
-0.05404603,0.05702744,0.04552254
-0.00902915,0.1381464,0.01374017
-0.003224153,0.002842017,0.02429867
0.03470422,-0.03409528,-0.11693189999999999
-0.02586827,-0.02220064,-0.08347715
-0.04134885,0.0007782689999999999,0.01954669
0.10786760000000002,-0.06366783,-0.09814525
0.1152493,-0.05883931,-0.01739559
0.1310683,0.05587948,-0.1048378
0.06957182,-0.01249096,0.06040585
0.02258565,-0.04336965,-0.02885172
0.01023758,-0.11375239999999999,-0.07664175
0.01987443,0.02406073,-0.03147858
0.04580156,0.09389792,0.05232948
0.07859506,-0.06946222,-0.02802608
0.04756522,-0.1030934,-0.05069813
0.04262468,-0.06479599,-0.02002559
0.04194336,-0.07274655,-0.005659219
0.05299394,0.01376239,-0.03601402
0.02040409,0.07057957,-0.007581470999999999
0.06630022,0.05129956,-0.03514556
-0.01259265,-0.03543644,0.06767038
0.047049099999999996,0.03166856,-0.03332849
-0.004771126,0.009168001,0.03138109
0.02088778,-0.044103300000000005,0.008267466999999999
-0.003274157,-0.03415524,-0.008115458
0.02765429,-0.01432417,0.003355194
0.02049789,-0.02649951,-0.01382346
0.03644666,-0.1207914,-0.01737883
0.04830773,-0.07285997,-0.06698792
0.01256281,-0.04930042,-0.03846072
0.02272243,-0.03012501,-0.0234201
0.05589318,0.013801400000000002,-0.0557725
-0.02762747,-0.02658332,-0.0006261551999999999
-0.01527061,0.02358973,-0.001940875
0.01216816,0.03350201,-0.009305561
-0.03036219,-0.008804113,-0.004209236
-0.05804843,-0.030014599999999995,0.00024891830000000004
-0.03714712,-0.001151101,0.0016814010000000001
-0.05121323,-0.03839472,0.025992900000000003
-0.01555499,-0.0217732,0.02129017
-0.01096093,-0.01044598,0.01770168
-0.03529482,-0.0207095,0.02286978
-0.03183813,-0.03642705,0.03841202
-0.03090967,-0.04508849,0.02566779
-0.05184416,-0.005121109,0.01563749
-0.02546144,-0.07469191,0.04794833
-0.05021493,-0.03833919,0.05272249
-0.05306476,0.0007341243,0.044793900000000005
-0.04861024,-0.04218553,0.04710888
-0.07710703,-0.02696997,0.06860855
-0.01572218,-0.04130975,0.03689089
0.02866751,-0.03581997,0.01103408
-0.02670256,0.02192102,0.0029861609999999998
-0.07054924,-0.0773543,0.04419029
-0.01344537,-0.05127695,0.025254099999999998
-0.04124023,0.0004750676,0.03524428
-0.01956167,-0.02084794,0.02572447
0.02161375,-0.02089943,0.04212639
0.004272375,0.005271723000000001,0.02229604
0.0540585,0.01935202,0.001856016
0.0050956379999999996,-0.02343688,0.0001422418
0.006371172,-0.01477477,-0.009158336999999999
0.01235242,0.01064068,-0.00849354
0.0105476,0.01460731,-0.02614191
-0.01380658,-0.0386043,-0.004892324
0.01531214,-0.02076569,-0.03958773
0.03622634,-0.03890481,-0.05895078
0.01349548,-0.02704116,-0.02775652
-0.009249571,0.00205385,-0.04747516
-0.0242137,-0.02026143,-0.04240735
0.03434439,-0.02362104,-0.05528859999999999
0.04482942,0.02380689,-0.04623123
0.02102717,0.01896226,-0.0337496
0.01535563,-0.005909748,-0.01471378
0.01530373,0.02270699,-0.05216006
0.004326541,0.01455926,-0.008647159
0.05448782,0.04478731,-0.03705229
0.006836488000000001,-0.04092937,0.01408802
0.03156132,-0.0117275,-0.01669083
0.03633399,-0.023100799999999998,0.020213
0.04660507,-0.01240211,-0.01557754
0.02992709,-0.04913606,-0.01843636
0.03515039,-0.07487981,0.006518485
0.02584127,-0.04188608,-0.01027566
0.009128043,-0.04760925,-0.009842415
0.01846896,-0.10874500000000001,0.017637200000000002
0.04082493,-0.03758428,-0.029927600000000002
-0.02270736,-0.01351935,-0.01451058
0.03429891,0.03093011,-0.00610825
0.003473158,0.01731065,0.02404154
-0.01355523,-0.007543754000000001,0.02066797
-0.002670845,-0.02357956,0.03763819
0.009268149,-0.05476369999999999,0.02743031
-0.03094008,-0.0357705,0.03438881
-0.01781211,-0.04240461,0.02046364
-0.02570627,-0.001468308,0.027533799999999997
-0.01749906,-0.03098357,0.02907947
-0.04493263,-0.08731654,0.05370792
-0.03447573,-0.02712687,0.0199205
-0.031467300000000004,-0.05541262,0.03640633
-0.04025171,-0.03929489,0.01480063
-0.03909788,-0.04608407,0.03835703
-0.0045781829999999996,-0.05730601,0.01623612
0.01628464,-0.07242844,0.02843721
-0.03683506,-0.02105735,0.03202553
0.004042771,0.02027118,-0.01597236
0.009944233,-0.02535477,-0.02347247
0.005168491,0.01608695,-0.03540614
0.002589591,-0.02607572,-0.009389956999999999
0.0304392,-0.03115492,-0.02961432
0.02525673,-0.01092603,-0.02276263
-0.005945376,0.03117944,-0.03225116
0.02283954,-0.01521874,-0.02491499
0.03988884,-0.01021916,-0.049692900000000005
0.003969533,-0.02796294,-0.01866025
0.002858163,-0.03371296,0.01684419
0.05193859,-0.002925454,0.0106678
0.06255552,-0.03036772,0.02232476
0.02764907,-0.04721843,0.02309893
0.01697365,0.004814848,0.007323228
0.03915074,0.008537421,0.006795193000000001
0.02134471,-0.004322747,-0.0067229230000000004
0.01549269,0.005123827,-0.01061401
0.02309188,-0.03429019,-0.0298657
-0.001255838,-0.05170888,-0.005905198
-0.03225085,-0.02647015,-0.005638553
0.01159548,-0.05024376,-0.04891095
-0.05614191,-0.01707929,0.007125763
-0.04148288,-0.0396242,0.02664188
-0.01819929,-0.02559086,0.011324899999999999
0.04365276,-0.03980867,-0.01418578
0.0014317070000000002,-0.0008216314,-0.02635774
-0.003899068,-0.003002545,-0.00638462
-0.009862909,0.02285826,0.01608101
0.004199389,-0.02974844,0.04102399
0.0015679860000000002,0.03479191,0.01584229
-0.008433725999999999,0.0001125792,0.02932326
-0.02775135,-0.01154502,0.03259435
-0.01479025,-0.02021614,0.02022951
0.008320826,-0.06455018,0.0159599
-0.002356817,-0.07513819999999999,0.02956781
-0.007741222,-0.02443342,-0.000934189
0.01072654,-0.04963737,0.0160703
0.002625353,-0.03836443,0.009311409
-0.03922937,0.02661989,-0.003118526
-0.006129696,-0.01560056,0.00638571
0.01199824,0.017121099999999997,-0.01659036
-0.01919439,0.03807992,0.00573365
-0.004580677,-0.03976837,0.008693622
0.009609325,-0.02057589,-0.004787192
