Acc_x,Acc_y,Acc_z
-0.0008969791,-0.11848130000000001,0.0946619
-0.04163776,0.01509677,0.01296992
-0.02813752,0.05463401,-0.02561286
-0.008486605999999999,0.02488296,-0.01622355
-0.08638674,-0.009486183,0.006888684
-0.0999625,-0.02080373,0.01646262
-0.08628181,-0.05567099,0.00011092799999999999
-0.1333116,-0.06507187,0.00269058
-0.127383,-0.06548882,-0.01038253
-0.1556689,-0.04787421,-0.0001553707
-0.1323599,-0.04436078,-0.004475422
-0.12699349999999998,-0.02241119,-0.0051551570000000005
-0.11285139999999999,-0.05967919,-1.0155139999999998e-05
-0.1230626,-0.04192785,0.01157347
-0.11486760000000001,0.005588462,-0.0276911
-0.09189223,-0.07310341,0.03268244
-0.07439484,-0.06535637,-0.02495314
-0.04956002,-0.06765858,-0.009283682
-0.08114954,-0.04569672,0.002946706
-0.06429388,-0.07125939,-0.009743297
-0.07709651,-0.096469,0.01390194
-0.03769199,-0.0026712190000000003,-0.002072459
-0.02399043,-0.06205107,-0.00406405
-0.008526993,-0.05094924,0.00780827
0.02871722,-0.03389004,0.009982928
0.04763899,-0.04124434,-0.006451133
0.04244752,-0.0005946158999999999,-0.02644644
0.08100677,0.0061630569999999996,-0.02032062
0.03091342,-0.002453784,0.0013577029999999998
0.07253146,0.002781552,-0.01481845
0.04826153,0.03118533,0.001784561
0.07945131,0.01319402,-0.007788599
0.1269896,-0.02220695,-0.008661281
0.05300313,-0.0005127154,0.0104215
0.04982357,-0.04399256,0.01566394
0.03472399,-0.01846258,0.01876319
0.09069351,-0.02209087,-0.01734741
0.07805305,-0.04943722,0.009572452
0.03514497,-0.009968746,-0.00858128
0.03102928,-0.03457237,0.00673837
0.01376311,-0.02655373,0.01541426
0.02289505,-0.0036062040000000004,0.0001139976
0.01985887,-0.003333756,0.007459974
0.009605018,0.003433023,0.009200765
-0.0053538480000000005,-0.01508203,0.01842037
0.01435021,-0.03520564,0.02836286
-0.001794869,-0.06665449,0.04443375
0.04696148,-0.03770679,0.02708303
0.03699413,-0.04364687,0.04853628
0.03888747,-0.0121194,0.0176417
0.01865673,-0.00556384,0.011787899999999999
0.006069351,-0.02045639,-0.0011096160000000001
0.06257130000000001,-0.02773404,-0.00734308
0.02797212,-0.01969582,-0.04578545
-0.0011747110000000002,-0.04341216,-0.04131825
-0.0252664,-0.06501613,-0.02560243
-0.02017252,-0.02225487,-0.06102713
-0.009510517,-0.05313861,-0.02318091
-0.04640218,-0.04404166,-0.02580548
-0.05168873,-0.03442799,-0.002207892
-0.060612900000000004,-0.02810218,-0.00596955
-0.03618751,-0.01679018,-0.02004262
-0.04406321,-0.0004315898,-0.02677891
-0.01766645,-0.022103599999999998,-0.009711754
-0.03008261,-0.01609711,0.008283108
-0.039567000000000005,0.01117131,0.009809244
-0.0121723,0.02807135,0.008149751
-0.0021464229999999997,-0.02307772,0.03130261
-0.05428758,0.004667457,0.01835976
0.0256227,-0.01539186,0.007787848000000001
-0.003220282,-0.02126898,0.04635294
0.03555107,-0.03219962,0.01417666
0.06450909,-0.08161759,0.01289813
-0.01433004,-0.07744537,0.03310285
-0.06759694,-0.02431403,0.02860812
-0.04020608,0.01907629,0.05669285
-0.02820952,-0.03763023,0.05732811
-0.01868264,0.06123637,0.01422523
-0.02196204,0.02511249,0.05258530000000001
0.004894674,0.04233777,0.04735363
-0.0291027,0.1040882,0.05963902
0.03701866,-0.03965669,0.01764652
0.05687954,-0.08385022,-0.016814199999999998
0.0203042,-0.06185921,-0.008171012
0.002325181,-0.08425166,-0.02865276
0.01877944,-0.2119363,-0.09559447
0.02031932,-0.02192727,-0.1097365
0.07010882,0.11088350000000001,0.04527134
0.01552426,0.2630719,0.03412919
0.02103678,0.1998191,0.101395
-0.01698078,-0.07241666,0.04501473
0.02212667,-0.3586218,-0.1382009
-0.02140068,-0.180206,-0.1294308
-0.06798685,0.05772381,0.05434321
-0.005938739,0.004427031,0.07972156
0.02049194,-0.0035050520000000003,-0.004776423
-0.01755098,-0.02307868,0.006768445
-0.02356824,-0.04501024,-0.0452401
-0.03132166,-0.03951228,-0.02713994
0.03574162,0.04357357,-0.03486808
0.01550082,0.06353752,0.02682406
0.04478939,-0.03723534,-0.02775545
-0.03097273,-0.03598811,-0.02938525
-0.01356352,0.004668295,-0.05301239
0.01251316,-0.04781754,-0.03412175
0.00021188330000000003,0.03845585,-0.06523427
0.03815141,0.05427543,-0.01292799
-0.006221422,0.06543796,-0.002745084
0.01366049,-0.06943559,0.08431127
0.00373058,0.009771274,-0.01087022
-0.03357343,0.004702182,0.03360739
-0.04364717,-0.002940119,-0.0009459666999999999
-0.00761926,-0.04574506,-0.01635145
-0.07512684,-0.11686880000000001,-0.009624595
-0.08049482,-0.1367015,-0.03314086
-0.06993712,-0.09484927,-0.04272063
-0.04825982,-0.06036947,-0.1077233
-0.02388441,0.04600195,-0.05701124
-0.03197291,-0.01460433,-0.03522053
-0.05238111,-0.06585889,-0.06964214
-0.003547686,-0.09756272,-0.03074518
0.0357166,0.01265924,-0.06250457
-0.002179261,-0.01229755,0.0022776660000000002
0.02910228,-0.008974243,0.025554900000000002
-0.01778257,0.03754248,0.02835172
0.0409022,-0.01717097,0.04151067
0.04985733,-0.002977096,0.01810357
0.04553599,-0.06419887,0.02822759
-0.03064751,0.02744328,0.03788358
0.0764192,-0.03079477,-0.002927205
-0.005355265,-0.02739492,0.07061697
0.001559515,-0.03103857,0.0482676
-0.008271454000000001,-0.06992371,0.02393674
-0.01338757,-0.09960061,0.0032383729999999997
0.03075033,-0.08132811,0.0014708229999999998
0.007229327,-0.02498538,-0.025911
0.00672429,-0.02712254,0.02058094
-0.008084424,-0.05170234,0.021837099999999998
0.01480519,0.00226202,0.004625598
0.0059072840000000005,-0.01096425,0.03462933
0.0597313,0.02545288,0.01888975
0.03180598,-0.001586325,0.02470937
-0.001083447,-0.001852162,0.06666207
0.02588611,-0.01311015,0.03111113
-0.01073009,-0.05733083,0.04818686
-0.02393369,0.002286462,0.01135807
-0.04995587,0.01121989,0.05670837
-0.033619,-0.02146843,0.04159158
-0.01269748,-0.03446161,0.02291137
0.0169804,-0.05387151,0.02225788
0.0017324810000000001,-0.05858782,-0.02008256
-0.0188282,-0.05584173,0.0001533325
-0.008018077,-0.044811800000000006,-0.001405288
-0.00112197,-0.01309543,-0.009589738
-0.01391468,-0.04538590000000001,-0.003652245
-0.01043312,-0.02732553,0.004107669
0.01313219,-0.04639474,-0.008856149
0.001957569,-0.02408788,-0.01424212
0.02745611,-0.02591986,-0.029907200000000002
-0.004330385,-0.03652038,-0.02818343
0.001836385,-0.04292955,-0.0206712
0.0297858,0.004612321,-0.02955871
-0.02165369,0.01712032,-0.02297238
0.01619438,-0.00017737970000000002,-0.02915113
-0.008257944,-0.02574752,-0.0261654
0.0013100310000000001,0.005307273,-0.03803955
-0.01115674,-0.03522436,0.0006431239
-0.0008330708,-0.02662229,0.020213
-0.0008989397,-0.0051392320000000005,-0.0002889921
0.03522588,-0.05438774,0.01767211
-0.01168984,-0.04861021,0.04752754
0.01869287,-0.02223325,0.01255644
0.05649336,-0.03539054,0.008754171
-0.02369959,-0.038563099999999996,0.005041715
-0.002304076,-0.05307693,-0.0038251609999999997
-0.01637498,-0.03088659,-0.007390076
0.01791914,-0.04622717,-0.0345594
-0.04182182,-0.01088869,-0.02321613
-0.03158293,-0.032433,-0.008052395
-0.05249402,-0.057959699999999996,0.02290982
-0.0054034,-0.05008017,0.007541902
-0.021461,-0.04562663,0.0003543282
0.004467875,-0.0282867,0.007844596
0.002962766,-0.04440621,-0.0026619
-0.004262603,-0.01109971,0.01715499
-0.01164955,-0.01271993,0.04330073
0.02064268,0.01119266,0.01227958
-0.01243326,-0.01253415,0.01168164
0.02402375,0.03050934,0.01928673
-0.01237922,-0.007925944,0.027522300000000003
0.001805148,-0.01557535,0.009474772
-0.02412945,-0.02869022,-0.02373772
-0.02116688,-0.06131482,0.01015407
0.02368573,-0.03746079,-0.03358335
0.03200147,-0.08785981,0.002842745
0.02620891,-0.02234367,-0.007767444
0.02863583,-0.01654515,-0.01611877
0.00042142300000000003,-0.0341705,0.01786128
-0.04294539,0.030948700000000003,-0.02010705
9.727385000000001e-05,0.004533392,-0.02744672
0.04576394,0.001689943,-0.015058100000000001
0.009860804,-0.01791785,-0.01624708
-0.00672754,0.02190143,-0.03358526
0.009127421,-0.01444858,-0.01030587
-0.0179856,0.02840781,-0.009689761
-0.01790693,-0.03644855,0.02918199
0.01225633,-0.04009008,-0.008210656
-0.02947745,-0.04477769,0.007099517
-0.0132695,-0.06820251,-0.0071742640000000005
-0.00872704,-0.06786464,-0.02104644
0.02563989,-0.03931776,-0.01852203
-0.01743974,-0.02696254,-0.0005042329000000001
-0.02345774,-0.006198328,-0.007949133
-0.02954629,-0.02594607,0.01075851
9.251665000000001e-05,-0.03309399,0.02734479
0.0378006,-0.01199212,-0.01318299
0.0293839,-0.003710152,0.002662259
-0.01042848,-0.01135006,0.05801608
-0.001995953,-0.05379923,0.02634529
0.01437545,-0.08156895,0.01388817
-0.01446336,-0.04967791,0.035751099999999994
-0.007553474,-0.04827615,0.0253665
-0.02109876,-0.04089595,0.07134437
-0.025490799999999997,0.02779567,0.05262592
-0.04088063,0.007050268,0.02103175
-0.06228677,0.02134643,0.0228175
-0.06416628,0.06875288,0.02575018
0.01605028,0.014199600000000001,-0.01388023
0.01250245,0.02437487,-0.05281759
0.021921400000000004,0.02199169,0.007464898
0.03220192,0.02918968,-0.02551059
-0.0018284710000000001,0.02230954,-0.01443646
0.03875227,-0.04084908,0.01804331
0.06268697,-0.06881399,-0.01378506
0.01340638,-0.1286374,0.03817527
0.02397856,-0.03777977,-0.02853437
0.009107703,-0.06188975,-0.00702814
0.004881346,-0.001579791,-0.0176845
-0.0067316,0.009141965,-0.06619747
-0.02298076,-0.08772817,-0.009814369
-0.06128290000000001,-0.03665246,-0.03447497
-0.03433669,0.02699096,0.0572688
0.009523809,0.02643738,0.07627278
0.05354821,-0.1498816,0.01289276
-0.01834383,-0.07535728,-0.05428836
-0.01664269,0.06996375,-0.01684726
0.01530973,0.1078468,-0.02406747
-0.05858293,0.02851908,0.03896063
-0.03001218,0.02668807,0.0009361775999999999
-0.05050094,0.0030812920000000002,0.02847315
-0.01647333,0.0021025370000000002,0.008127387
0.004458814,-0.06416849,-0.00459505
0.00261339,-0.05885442,-0.01292067
0.003830498,-0.02999892,-0.03134559
0.04965596,-0.08883192,0.01354602
-0.03025392,0.01613761,0.009241255
-0.007824134,-0.04761721,0.06881677
-0.005732235,-0.06437692,0.02087593
-0.01926143,0.07828714,-0.05363181
-0.005392671999999999,0.05255899,0.044346300000000005
-0.01345267,-0.04457014,0.01905027
-0.0004579537,-0.03691731,0.02446869
0.03144872,0.03887504,-0.05460287
0.01823601,-0.08401103,0.03508603
0.01601779,-0.06844124,0.01590641
0.01103849,-0.04170605,0.00175521
-0.008336401,-0.02732998,-0.02050016
-0.01459301,-0.1204612,0.01514112
-0.05600734,-0.03536795,0.02920522
-0.05952812,-0.07179829,0.06425868
-0.02056218,-0.02525239,0.004004417
0.04153135,-0.05486412,-0.001956867
-0.007387182,-0.04526388,0.0122539
-0.002311352,-0.04636965,-0.02068345
0.01722956,-0.04607184,-0.00996879
0.03857112,-0.02060564,-0.01252276
0.04162761,0.03091329,-0.04711564
0.03600944,0.03863034,0.008279396999999999
0.02512774,0.003113817,-0.0187221
-0.0004518046,-0.00412535,-2.802485e-05
0.02464185,-0.07884915,-0.03101507
0.02189833,-0.05964115,-0.04246277
-0.001576728,-0.03665054,-0.04248079
-0.04039415,-0.01194007,-0.007298071999999999
-0.004686025,-0.01028335,-0.01220157
-0.03919642,-0.01586246,-0.008267894
0.002519981,-0.0029380879999999997,-0.03442188
0.01242706,-0.01448174,0.0140463
0.01736904,0.01392985,-0.002030101
-0.01340175,-0.02131949,0.0179949
0.02925643,-0.04316245,0.03595561
0.02110331,0.004148524000000001,0.0320538
0.0309637,0.01255213,0.01509225
0.01294973,-0.003986042,0.02954826
0.01016778,0.01922668,0.01684924
0.0392485,-0.0494603,0.02731279
0.03510001,-0.07652753,0.04802618
0.00783658,-0.07063007,0.03011862
-0.01128397,-0.04371754,-0.01219241
-0.01534858,-0.06696142,-0.0019546760000000002
-0.06298297,-0.08937217,-0.003945895
-0.02252512,-0.001597315,-0.02909095
0.008281346,0.007629502,-0.005924455
-0.01287647,0.003015494,0.03067199
0.02363916,-0.03335227,-0.006702881
0.01723088,-0.03377989,-0.005338955
0.03982256,0.006949819,0.0015646689999999999
-0.002106605,-0.008798091999999999,0.007748717
0.008509454,-0.01342675,0.04154395
0.008958251,0.008930624,0.01542951
-0.01343258,0.02598936,0.01506301
0.01153034,-0.0671457,0.01481751
-0.01273446,-0.03687839,-0.02046964
-0.03006345,-0.03488617,-0.0010642030000000001
-0.01255235,-0.05754529,-0.002436409
-0.01159094,-0.06799939,-0.04068919
-0.01271844,-0.10820139999999999,0.009611337
-0.008144373,-0.07481079,0.01297701
-0.01681829,-0.02137295,-0.002948153
0.03059041,-0.03201231,-0.02962807
-0.01763471,0.02333997,0.003562413
-0.007286018000000001,0.03015252,-0.05211317
0.001419846,0.04016724,-0.01708893
-0.02916807,0.01711836,0.0023691520000000002
-0.006695621999999999,-0.0009555127000000001,-0.021809400000000003
-0.03389221,-0.01742169,0.0024099679999999997
-0.01310032,-0.0218395,0.004778557
-0.06124808,-0.01217286,0.0127689
-0.06633522,-0.01956903,0.02802682
-0.02869713,-0.06359214,0.02985329
-0.05390930000000001,-0.09609081,0.04069887
-0.0596847,-0.01654944,0.01569243
-0.01142327,-0.01188376,0.03621642
0.003112418,0.01256865,0.004316116
-0.00732391,-0.08732256,0.004414948
0.0042842240000000005,0.006120906999999999,-0.02039945
-0.03212056,0.02692796,0.01850598
0.02158019,-0.002011823,-0.001398436
0.04207204,-0.04517382,-0.01704089
-0.001600676,-0.017190200000000003,-0.03335426
-0.02652049,-0.03159676,-0.01839072
-0.0022896329999999997,0.01887166,-0.01884014
0.06596166,0.02330243,-0.01233215
0.02168958,0.005452925,-0.02515197
0.003656521,-0.05433028,-0.0033427559999999997
0.01778164,-0.03552441,-0.01117615
-0.008094255,0.004083675,0.02303905
0.006596875,-0.03736386,0.04005516
-0.01252733,-0.04959911,0.04125138
0.03026977,-0.05992586,0.01447363
0.004520297,-0.03671171,0.05627233
0.04329268,-0.05006815,0.0155672
0.06403461,-0.02833266,0.006975153
0.07468764,-0.05534819,0.002065895
-0.0204582,-0.06976581,0.01105066
0.01853397,-0.03895887,-0.02446691
0.01029707,-0.07569856,-0.00981923
0.002051905,-0.05454968,-0.0057472190000000005
-0.008372983,-0.037599,-0.01393453
-0.0375433,-0.02976009,-0.0218345
-0.01607384,-0.04804517,-0.02665834
-0.009361182,-0.04716445,-0.005044516
0.03001893,-0.02212732,-0.03564623
0.01692141,0.0253258,-0.03888674
-0.004247384,0.003737481,-0.01005821
-0.04976501,0.02608916,0.01165377
-0.01032541,0.08456875,0.01625045
0.03012506,0.05445793,0.003921262
0.03892738,0.02084834,0.001070578
0.04242721,-0.03134409,0.02586761
-0.003685731,0.007866563,-0.00528204
0.02003848,-0.08553059,-0.03110681
0.02666567,0.02565445,-0.06432736
-0.01618191,-0.06917901,-0.01284585
0.010319,-0.02923981,-0.02969274
-0.01815088,-0.0007067042999999999,-0.021469299999999997
-0.008712615,0.008235194,-0.008480838000000001
-0.024691400000000002,0.05413929,0.01523549
0.003747307,-0.1330357,0.03806335
-0.01188552,-0.1121613,-0.05937524
-0.0002548993,-0.05470154,-0.03994548
-0.009727625,0.01007919,-0.03341049
0.01017506,0.02708773,-0.005650198
-0.006110553,-0.06539205,0.0478159
0.0045628,-0.01863553,0.037901300000000006
-0.03040207,-0.008326291999999999,-0.03916363
0.02944324,-0.05176412,0.02237634
-0.04851136,0.02234914,0.04006267
-0.06883541,0.05092359,-0.01107627
-0.07911588,-0.03809017,-0.008558716999999999
0.0080585,-0.04078122,-0.04258761
0.05921534,-0.047464400000000004,-0.03660579
0.06229928,-0.06452718,-0.04974657
0.06067988,-0.01716158,-0.09008463
-0.023757900000000002,-0.07374202,0.03324109
-0.0026668390000000003,-0.03438537,-0.008800409
-0.12612910000000002,0.05210464,-0.000510551
-0.1113395,0.115445,-0.02210674
-0.06718151,-0.05333231,0.06176434
0.01348129,-0.05542451,0.03604849
-0.01285813,-0.0124287,0.0286305
-0.02367163,0.004047681,0.06126066
-0.0627064,0.033417199999999994,0.1080052
-0.03396734,-0.08059152,0.12030810000000002
-0.04635983,-0.06531018,0.06949642
-0.04800585,-0.06345724,0.09514411
-0.1182758,-0.03289998,0.11289560000000001
-0.04507917,-0.01704622,0.09408759
-0.03872854,-0.01149603,0.07091789999999999
-0.05263094,0.0001187213,0.05640181
-0.03569287,0.008659761,0.0028293690000000004
0.02202723,-0.01203745,-0.02291957
0.02049088,-0.03165339,-0.05234418
0.01337093,-0.05057716,-0.05834976
0.01086135,-0.06677788,-0.05008386
0.02252686,-0.04014322,-0.08256735
0.05278035,-0.04949732,-0.0767577
0.01321396,-0.08363545,-0.05571155
0.06707095,-0.02756467,-0.11779760000000002
0.08410823,0.009435125,-0.08322442
0.03061013,-0.03366497,-0.03815256
0.03291134,-0.03746935,-0.04692968
0.02817561,-0.03838022,-0.04138030000000001
0.02212102,-0.04470551,-0.01553381
-0.01271572,0.01092081,-0.0050231370000000004
0.02655184,-0.002252585,0.008511093
0.0038572259999999996,-0.009966975,0.008128338
-0.0019023179999999998,-0.04590493,0.0002138961
0.006366666,-0.006263815,0.001038293
-8.300412e-05,0.001498805,0.03118377
0.0518434,-0.01623231,0.0017847120000000001
0.02251335,-0.07155536,0.02835621
-0.009595218,-0.09673265,0.03236801
0.01507946,-0.052908800000000006,-0.01501017
-0.006080596999999999,-0.03228829,0.03166039
0.04470862,-0.03547066,-0.007201583
0.006163900999999999,0.001703045,-0.001407204
0.02597008,-0.01142059,0.006806305
0.0118994,-0.004389385,0.01906677
-0.02943658,0.01201345,0.03022967
0.04690573,0.001391659,-0.008998264
0.03590605,-0.0287087,0.02419662
-0.0021408539999999998,-0.01863767,0.04379106
0.03369755,0.02574549,0.00668265
0.00044350419999999996,-0.01528107,0.0383851
-0.008703385,-0.02591873,0.0445446
-0.01685537,-0.0689228,0.05555198
-0.02168399,-0.0467835,0.05343634
-0.04849282,-0.04918814,0.0519371
0.0032650170000000003,-0.05459168,0.005861022
-0.06308503,-0.06462599,0.03172134
-0.03045427,-0.01718791,0.002228021
-0.03429518,-0.05235974,0.02152827
-0.008485602,-0.06964111,0.004920357
-0.01621541,-0.01105414,-0.01405709
0.003790913,0.004792866,-0.02681123
-0.02489677,-0.029680400000000003,-0.01299888
-0.04286734,-0.00691135,-0.01157366
-0.002384916,-0.01069344,-0.02575375
-0.02171086,0.005869389,-0.02628742
-0.02255758,-0.00868281,-0.03085406
-0.02259053,0.007825091,-0.03938686
-0.04856758,-0.02328554,-0.03133962
-0.01127675,-0.05461248,-0.005957546
-0.05118736,-0.03386372,0.011514100000000001
0.01286858,-0.01048043,-0.03310689
-0.008991543000000001,-0.01918468,0.002180514
-0.008773361,0.00496729,-0.03907641
0.03592285,0.003316163,-0.03184925
-0.001371161,0.025071400000000004,-0.02302754
-0.03653173,-0.04169279,0.01122076
0.01167414,-0.03552456,-0.01385081
-0.03041516,-0.03606973,-0.01967121
-0.02496427,-0.04921927,-0.02170821
-0.01903858,-0.027091900000000006,-0.03183611
-1.14115e-05,0.001210548,-0.01485684
-0.02806529,-0.06199658,0.006332445
-0.04962479,-0.0267904,0.02319347
0.009032631,0.002555978,0.019659
0.04489684,-0.03056919,0.01416817
0.003457586,-0.01613188,0.01670315
-0.014752600000000001,0.001675012,0.02422272
0.02016772,0.03007706,0.04111138
0.06996453,0.005096979000000001,0.01528467
0.03961242,-0.004009625,0.02248017
-0.003214771,-0.02612778,0.06237562
0.0389365,-0.0001368299,0.003487945
0.04236118,-0.0270137,0.01328028
0.02396044,-0.06771229,0.038863699999999994
0.04951133,-0.07445253,0.0052840859999999995
0.04715162,-0.0830546,-0.002506712
0.01669146,-0.01994009,-0.007672816999999999
-0.009591689,-0.02439198,-0.007836796
0.01154702,-0.006326701,-0.003996694
0.01756417,0.01264769,-0.005026259
0.00415922,0.0003954973,-0.005337798
0.0026368209999999997,0.004690069,-0.01551095
0.01252541,-0.00586137,-0.02325977
0.003130268,-0.01825947,-1.781376e-05
-0.02125969,-0.04309833,0.02214609
-0.04722088,0.0026791690000000003,-0.01600717
-0.03560495,-0.02573448,0.003121918
-0.060467200000000006,-0.05657275,0.0149762
-0.05320008,-0.05536414,0.004539885
-0.02602597,-0.04561884,-0.005110417
-0.0207553,-0.06025912,0.01725266
-0.07096357,-0.0749592,0.006577156
-0.009637054,-0.06863382,-0.001206799
-0.03275806,-0.02442143,-0.02510182
0.009403802,-0.03543508,-0.02051556
-0.01747328,-0.06010948,-0.0054036990000000005
