Acc_x,Acc_y,Acc_z
-0.02925282,-0.004671173,0.02816318
-0.03069675,0.005264981,0.01218113
-0.05798675,0.06456144,0.03713214
-0.0648871,0.0379726,0.05003234
-0.01960369,0.04965278,-0.0229712
-0.06564303,-0.02467453,0.01277849
-0.03993518,-0.03041405,-0.02875791
-0.04954889,-0.02978412,-0.002927698
-0.02086422,0.01171525,-0.02648811
-0.03452008,0.07755536,0.007769394000000001
-0.04665444,0.03780271,-0.002066808
0.01796181,0.08438681,0.004708175
-0.04716766,-0.0019482820000000002,0.01631301
-0.05069577,0.01642449,0.04165842
-0.04891778,-0.02448892,-0.0104884
0.007352578,-0.08190628,-0.06846666
-0.01508401,-0.10445819999999999,-0.05682513
-0.0272594,-0.03263143,-0.02020933
0.01153745,0.09044021,0.005281518000000001
0.01184688,0.01134568,0.04174824
-0.0150649,-0.08430319,0.04571645
0.003790528,-0.09670581,-0.03342365
0.01267453,-0.07759999,-0.05845664
0.04355692,-0.0779243,-0.025591299999999997
0.08937745,-0.10189619999999999,-0.05118683
0.08133044,-0.05158883,-0.01578172
0.07292919999999999,-0.06155533,-0.02762107
0.02955048,-0.04660241,-0.0187446
0.03045185,-0.02482506,0.004623867
0.01816855,-0.04385599,0.02477631
0.02679396,-0.002151858,-0.00904949
0.04108613,-0.02103673,-0.01668031
0.045174,-0.0171571,-0.007113855
0.03904176,-0.04406904,-0.025958699999999998
0.01830061,-0.001791257,-0.02455672
0.05527572,0.006718851999999999,-0.02744161
0.08266772,0.03175703,-0.041806499999999996
0.0489469,-0.04526288,0.02044443
0.03785649,0.02516344,-0.009351360999999999
0.06418457,-0.009265576,-0.02428665
0.01042438,-0.05177343,0.01590448
0.01673254,-0.05976018,0.001166491
-0.02203415,-0.01089075,-0.00558829
0.02191013,-0.01778384,-0.0578507
0.02095081,-0.07396495,0.008844395
0.02352154,-0.04945628,0.0074300569999999995
-0.001014722,-0.06285625,0.01125594
0.01139628,0.02425161,-0.006958563
0.002168946,-0.004386813,0.006565578000000001
9.331945e-05,-0.0143143,0.02069246
0.0012307330000000001,0.05119856,0.009287283
0.03062035,-0.03163339,0.008977627
0.03809168,-0.05715941,-0.02640307
0.03320593,-0.028306599999999998,-0.03357663
0.05810431,0.004892113,-0.07449271
0.03893138,0.008118151,-0.01529311
-0.007491777,0.02052977,0.01679225
-0.002902825,0.02630544,-0.005676067
0.01338366,0.02990161,0.01503152
0.01921938,-0.01182938,-0.02120653
-0.03587629,0.01555745,-0.03240199
-0.04372945,-0.03210826,0.00934865
-0.03304601,-0.03747448,-0.03637591
-0.02749431,-0.05423044,-0.02549056
-0.01689592,-0.04521628,-0.0493984
-0.01760352,-0.04618030000000001,-0.02036011
-0.01565558,-0.07903169,-0.02981051
-0.0399857,0.009881068,-0.01223199
-0.0007364833999999999,0.0032680409999999997,-0.02566771
-0.008682759,-0.01953462,0.02743115
0.03058146,0.01356057,-0.02285824
-0.02120256,-0.03284632,0.01181422
-0.00768933,-0.04748389,0.001331683
0.04467891,-0.008380678,-0.02242644
-0.00664637,0.04020872,-0.006555826
-0.0026533990000000003,-0.0185919,0.05007511
-0.01205685,-0.01257612,0.02119109
-0.02109529,-0.04617229,0.001188125
-0.01679799,-0.0253879,0.008052788
-0.0512265,-0.05241789,0.03509207
-0.002562413,-0.004723605,0.0022037370000000003
-0.007621927,-0.01720584,0.005951392
-0.01003017,-0.02599835,0.01059221
-0.02946094,-0.01959886,0.005950709
0.03591651,-0.01498899,-0.01292794
-0.004185719,-0.009245699,0.000508939
-0.05002523,0.009129517,0.03106624
-0.01617282,0.01658919,0.04649074
0.02189903,0.0009295847,0.03158369
-0.009976421999999999,-0.0491659,0.06526319
-0.03753956,-0.05666054,0.057784800000000004
-0.03495722,-0.03513969,0.02122946
-0.04491185,0.007884546999999999,0.01939863
-0.003182105,-0.0381469,0.01601063
0.002527333,-0.01236902,0.02412805
-0.03175453,-0.06799887,0.04669217
0.01180761,-0.01671186,0.000161068
-0.0148316,-0.01478391,0.01714798
-0.001119853,-0.04641455,0.003346284
-0.015999100000000002,0.01441956,0.0031023709999999996
0.03337093,0.02411498,-0.0366221
-0.005672655,0.01951849,-0.026668
0.002910989,0.02651011,-0.01325064
0.02276961,0.02903468,-0.03316002
0.04951265,0.03292931,-0.07708585
0.0028848259999999996,0.008405758000000001,-0.0492506
0.03538282,0.08178063,-0.05846339
0.03489445,0.03303423,0.0001704507
0.05503295,-0.03338672,0.0019455289999999999
0.009890676,-0.02498086,0.02684605
-0.03493478,-0.02540662,0.01266727
-0.01130588,-0.0413769,0.01713938
-0.02124151,-0.05946805,0.07061881
-0.053402099999999994,-0.08516721,0.07728517
-0.01478122,-0.05109028,0.07096053
-0.006697893000000001,-0.02454201,0.0551774
-0.03507783,-0.02164584,0.055551800000000005
-0.02974021,-0.03223335,0.002209804
-0.04218926,-0.02492651,-0.01327007
-0.04159837,-0.034825300000000003,-0.01768667
-0.04000019999999999,-0.08198719,0.02903218
0.0221274,-0.07910622,-0.00624328
0.031292,-0.05160603,-0.01778461
0.0218818,0.006434962,-0.02175833
0.0545482,0.0040729270000000005,-0.05556506
0.02692644,-0.018149000000000002,-0.03338502
0.005082747,-0.01083915,-0.0242085
0.01912365,-0.04028654,0.002609308
0.03452571,-0.03788894,-0.04309061
0.01975083,0.01907574,-0.02518609
0.009937009,0.02430692,-0.001965139
0.03435894,0.01972306,-0.01112553
0.01054673,0.029869599999999996,0.01354058
0.02032212,0.02326293,-0.01484984
0.0202591,-0.10249280000000001,-0.004716604
0.00377017,-0.02322134,-0.021588299999999998
-0.0145734,-0.01167399,-0.02306486
-0.01846472,-0.02627419,0.0215167
0.01354962,0.03872848,-0.01334885
0.05905353,0.01767209,-0.0339625
0.006766258000000001,-0.02307777,-0.01623255
-0.005178984,0.01134376,-0.02905023
0.007232871,0.01212069,-0.003217109
0.01694117,0.02654072,-0.004122755
-0.01418702,-0.02471453,0.009164109
0.01392038,-0.0016640239999999998,-0.003302404
-0.01776358,-0.00261813,0.00536945
-0.03677158,0.02358654,0.008711338
-0.020990099999999998,0.01927152,0.008893833
-0.04182376,-0.04105777,0.04733818
-0.008230984,-0.04716705,0.019953099999999998
0.05093,-0.1471579,0.0006387569000000001
0.014835399999999999,-0.02855485,-0.015327700000000001
0.0002944563,-0.03262636,0.03540459
-0.0036089959999999997,0.01447732,0.05435468
-0.0018062920000000001,-0.03045146,0.01025419
-0.02061017,-0.01763581,0.01449404
-0.009940197,-0.05817788,-0.0017910920000000002
-0.02353326,-0.05909868,0.05462796
-0.01851743,0.007958192,0.02799725
0.02210151,0.05386171,0.03762423
0.0100017,0.06510483,0.05783362
0.026956400000000002,0.1276673,0.03302613
-0.03376928,0.3839228,0.2434049
-0.01710671,0.38272259999999997,0.3718875
0.04606317,0.33963530000000003,0.1939595
-0.0053014180000000004,-0.1551235,0.06884778
-0.04645633,-0.49507840000000003,-0.19782270000000002
-0.06571018,-0.5238826,-0.23794970000000004
-0.06407299,-0.4539219,-0.1517134
-0.03662388,-0.2749228,-0.11437080000000001
0.161146,0.2495866,0.04402669
0.1317305,0.1847407,0.05677744
-0.07074828,-0.07087117,0.03161693
-0.1153115,-0.2241104,-0.02724015
0.026880900000000003,-0.13533910000000002,-0.09943673
-0.002407817,0.04244591,0.01588281
0.03794905,0.1925713,0.04342471
0.03133324,0.05775827,0.09902769
-0.01666066,0.05277469,-0.004626618
-0.01760922,-0.0566889,-0.007749086999999999
-0.007785831,-0.05292797,-0.03353145
0.02332903,0.01255307,-0.11130239999999998
0.004177079,-0.0304704,-0.03114575
0.02698781,-0.10871379999999999,-0.01059027
0.02702291,-0.08466946,0.01547328
0.02643382,0.01660267,-0.008777615
0.03309443,0.01645457,0.04574583
-0.01124913,-0.02757184,0.06661493
0.01554472,-0.05624386,-0.03549182
-0.03074114,-0.1251017,-0.02665495
-0.01743941,-0.01324302,-0.03512453
0.01358198,-0.07015866,-0.007968946999999999
0.00203796,-0.044248,-0.01588772
-0.01661533,0.0022977220000000003,-0.01264217
-0.02609804,0.11554089999999999,-0.04513336
-0.0015219370000000001,0.11701660000000001,-0.0311843
-0.02106136,-0.007759564,0.004991859
0.05633514,-0.08796304,-0.07052639
-0.01694541,0.06916568,-0.04217282
0.01264241,0.06632873,-0.01822723
0.004221787,0.09775577,-0.01933289
-0.005118918,0.02932354,-0.02619797
-0.05082382,-0.04127377,0.01270605
-0.02461353,-0.0761954,-0.007190757
-0.02553725,-0.05138826,-0.02736804
-0.006530599000000001,-0.06716408,-0.02446333
-0.007171558000000001,-0.03785336,-0.01742118
0.02739987,-0.03574633,0.04386001
0.0007461216000000001,0.03173225,0.03977853
-0.026823900000000005,-0.06507823,0.029734800000000002
-0.01817572,-0.06433189,0.03735933
0.0034316670000000002,-0.06167329,-0.008062558000000001
-0.034507499999999997,-0.02933953,0.004464974
-0.01713379,-0.07702285,-0.01519684
0.015626400000000002,-0.01001833,0.01515206
-0.0030789740000000004,-0.04608852,0.006534643000000001
0.02137744,-0.07990129,-0.04712088
-0.01122594,0.02966236,0.01768586
0.02097538,0.0753947,-0.01158954
0.003927219,0.04614825,0.008637905999999999
-0.02809287,-0.03267184,-0.01340652
-0.003236835,-0.07335967,-0.01399088
-0.03100407,0.01173659,-0.01981365
-0.0426689,0.07286386,-0.01513466
-0.04716489,0.02836221,-0.01292562
-0.05456813,0.07469462,-0.0009050742
-0.02561645,0.03598385,0.006940838
0.00938266,-0.02391661,0.0007409551
0.02088844,-0.01752214,-0.01414945
-0.03544281,-0.01772631,0.0008202083
0.01371578,-0.07781019,0.01575769
0.004299677,-0.0566894,0.01969245
0.01763293,-0.01266007,0.03363993
-0.00530372,-0.01614692,0.02882732
0.00496714,0.06524918,0.05461766
0.03086087,0.05340604,0.03175796
0.01321469,-0.02252478,0.02694201
0.07615666,-0.04352461,-0.01387601
0.02212645,-0.06361824,-0.008813962
0.008445843,-0.03941474,0.0009524017
0.02308834,-0.03979763,0.02082875
-0.01908039,-0.05947716,0.04406333
0.03112872,-0.02432917,-0.02201293
0.003613812,-0.003709961,-0.01901394
0.01156892,-0.03133471,-0.02234876
-0.01004369,-0.02800797,-0.01180221
0.01332016,-0.06014565,0.005596249
-0.01800688,-0.02796778,0.01758502
-0.02865946,-0.02110874,-0.022740700000000003
-0.0009751803999999999,0.05344985,-0.04008431
-0.005029365,0.008212212,-0.00855022
0.02121927,0.07608630000000001,-0.03401924
0.0035665709999999997,0.03803327,-0.04575226
0.02496726,0.07105462,-0.04188062
0.02677892,0.030656799999999998,-0.03971572
-0.005842125,0.04466571,-0.06963004
-0.01859739,0.001149165,-0.0682486
0.02955045,-0.01835535,-0.07856429
0.0032769440000000004,-0.02017407,-0.01638914
-0.006346706,-0.05809283,-0.02290251
0.01837199,-0.02968947,0.0031237770000000003
-0.0003237003,0.02570086,-0.01058111
0.01492712,-0.020427599999999997,-0.03381354
0.03940625,-0.01787616,-0.01942404
0.01541195,0.0607611,-0.0499837
0.02500204,-0.07126988,0.0072588819999999995
0.04659322,0.0071827819999999995,-0.003551772
0.01057752,-0.04917315,0.02317203
0.04797977,0.0076473619999999996,-0.03135894
-0.01405489,-0.03162899,0.05838218
0.03816086,0.02509001,0.01089852
0.05185625,0.01926857,0.02305564
0.008004075,-0.04319972,0.01683608
-0.006702881999999999,-0.06347478,-0.02669644
-0.0004720325,-0.04738814,-0.01335493
-0.03712268,-0.0312709,0.003503376
-0.01185235,-0.01278924,-0.016167400000000002
0.01419628,-0.002513907,-0.01229863
-0.02147039,0.03266427,-0.01802088
-0.0022431129999999997,0.02552833,-0.0200578
-0.002444426,0.023100700000000002,0.01474201
-0.01791608,0.04343372,-0.004241017
-0.000214247,-0.04878294,-0.02292216
0.02645877,-0.07022152,-0.0412264
-0.01703887,-0.01567168,-0.01370402
-0.04846828,-0.006692261,-0.009290276
0.002167558,0.06238108,-0.03854021
0.03951221,0.0396834,-0.03764575
-0.02075701,0.03666061,0.01464112
0.02712554,-0.006016616,0.01683158
-0.003022547,-0.02926114,0.005064577
-0.02782161,-0.04932067,0.01684659
-0.001267037,-0.06937316,0.01627717
0.02175994,-0.06086437,0.01189053
0.003306665,-0.09356304,0.05727195
-0.01303623,-0.041746899999999997,0.07284699
0.02242575,0.03853179,0.02743268
0.03760748,-0.01887611,0.04048653
-0.01888525,0.01152492,0.02756277
-0.002534078,-0.06287496,0.00910307
-0.05961559,-0.04934086,0.02592219
-0.08786438,-0.0372615,0.01247986
0.009301488,-0.04783788,-0.02341282
-0.0008385558999999999,-0.04936067,0.0137933
-0.007033953000000001,0.00154236,-0.02663611
-0.03293481,0.01047595,-0.008532426999999999
-0.007873448,-0.02009682,-0.01859443
0.007035464,0.01421432,-0.01981328
0.0038774490000000003,0.01311136,-0.01862676
-0.007047608,0.01927401,-0.01748596
0.01061108,0.009398201,-0.02316497
-0.01229475,-0.008248968,-0.009813523000000001
0.002394698,-0.01060589,-0.0008714444
-0.007888405,-0.02283448,0.0219905
-0.047105,-0.0008039521000000001,0.05071386
-0.01252276,-0.01598515,0.04968242
0.009941911999999999,-0.01515768,0.036368300000000006
-0.02283457,0.01169704,0.01099314
-0.0114848,-0.02682114,-0.0007988200999999999
0.04248315,-0.02655786,-0.04743801
0.01314152,-0.04362743,-0.01571405
0.03811859,9.301491e-05,0.0022254420000000002
-0.01374069,-0.0054805209999999995,0.04184763
0.02331189,-0.01902301,-0.0002764631
-0.06144712,0.008093343000000001,0.0465865
-0.012797200000000002,-0.01848914,-0.002037526
-0.002247985,-0.0682834,0.01291927
-0.0113463,-0.05980971,0.02602465
0.02677359,-0.04419845,0.02691793
-0.0138114,-0.01396051,0.04162546
-0.005814124,-0.00185221,0.04872063
-0.03089999,0.002272349,0.048024800000000006
-0.03764365,-0.04421579,0.05015904
-0.02801167,-0.04129307,0.03932312
-0.04439533,-0.09731631,0.04268362
-0.06253024,-0.1012625,0.07829753
-0.0436268,-0.08913669,0.06288742
-0.04681515,-0.08198711,0.07926118
-0.04296731,-0.0359608,0.05040475
-0.08155194,0.009923728,0.03060159
-0.01821648,-0.009970310999999999,0.008864039
-0.03795477,-0.05690026,-0.001066884
-0.01304547,0.006358746,-0.02553522
-0.04268103,0.002406984,-0.006638436
0.01630392,0.04105048,-0.039922900000000004
0.02705963,0.04498135,-0.04592291
-0.02791247,0.08469220000000001,-0.02219634
-0.02010702,0.03236498,0.0062167640000000005
-0.02372005,0.03207159,0.005779005
0.02752608,-0.02476745,-0.01387639
0.03424687,-0.03415954,0.004489119000000001
0.01859906,-0.03032995,0.01053631
0.01131583,-0.003031367,0.01702278
-0.0013544079999999999,-0.00041630650000000003,0.05928527
0.004901845,-0.027738799999999997,0.0843816
0.001695458,-0.03413366,0.05165498
0.008440125,-0.08696392,0.02283477
-0.0335898,-0.08713417,0.009730758
-0.0024214429999999997,-0.07754631,0.01266525
-0.01004092,-0.08563643,0.02335529
-0.01097181,-0.06143718,0.02402825
-0.002878605,0.1335391,0.0005267626
-0.037900800000000005,0.09231009,0.03435732
0.0009594206,0.01226979,0.00801454
-0.0283923,0.006594531,0.005700503000000001
-0.0006366298,-0.05560174,-0.04934471
-0.0014318579999999998,-0.03727707,-0.06327113
0.00605922,-0.03093069,-0.04063668
0.05210159,-0.0031156540000000003,-0.01805559
0.04836462,0.01360556,-0.04770887
0.01532606,-0.04620511,-0.02396109
0.02288755,-0.06201614,-0.04591428
-0.007166845,-0.02456728,-0.03395978
0.02668175,-0.02503912,-0.03067844
7.001124e-05,-0.008338468,0.01988315
0.04822925,0.03629428,-0.04939643
0.03448234,0.01686994,-0.02175275
0.01219147,0.06398053,-0.01715682
0.02287462,0.01701151,-0.05040026
0.009135243000000001,-0.05600168,-0.01737069
0.0585086,-0.08270243,-0.026599099999999997
0.04563521,0.04784214,-0.03066582
-0.0069091859999999995,0.03438789,0.01661647
0.01635231,0.04917504,-0.04402649
0.02632875,0.05916771,-0.06998576
0.009908304,0.03932064,-0.06901899
0.002702337,-0.04343623,-0.04890709
-0.05734053,-0.04145515,0.01179708
0.01143335,-0.08889976,-0.01214981
-0.01728429,0.06348228,0.002367821
-0.0034172409999999997,0.03128458,0.01165077
-0.02888606,0.01104287,0.0241507
0.003720463,-0.05347517,0.00216531
-0.03829073,-0.06393773,0.01335981
-0.03931391,-0.03905064,0.04115145
-0.016396599999999997,-0.01546098,0.01420409
-0.04330206,-0.06685898,0.07040824
-0.05023678,0.08555624,0.04032142
-0.05331053,-0.04651608,-0.007282104
-0.06468584,-0.16845279999999999,-0.03590535
0.0006104866,0.009294748,-0.03007637
0.06538769,0.2325031,-0.1406126
-0.0064783409999999994,-0.09112635,0.05571042
0.02727739,0.03174779,-0.01539929
0.07157485,0.044612099999999995,0.01423162
-0.05957617,0.05156694,0.07619771
0.02577462,-0.16721429999999998,-0.02415767
-0.03430898,-0.2071967,-0.02276293
-0.007745298,-0.21333520000000003,-0.04052144
0.06120109,-0.1479616,-0.05247722
0.02076275,0.08567205,-0.0191644
0.01735567,0.07878137,0.04675464
0.01974062,0.17299620000000002,0.007675604
-0.035084699999999996,0.05115502,0.06422542
-0.08496863,-0.20648379999999997,0.01055526
-0.03327631,-0.1635356,-0.04445546
6.967783000000001e-05,0.020759700000000002,-0.03845334
0.002101064,0.1586365,0.05710682
0.06426777,0.12716760000000002,0.05517991
0.07972451,0.04522435,-0.01634991
0.02894786,-0.001830198,-0.03961577
0.0059210980000000005,-0.04767228,-0.02863968
-0.04350707,-0.029987200000000002,-0.002270669
-0.03314628,-0.02001301,0.02338616
-0.01489715,-0.05952869999999999,-0.002065664
-0.04258038,-0.0623114,0.03620401
-0.0003405921,-0.09290513,0.02604333
0.003534748,-0.02792009,-0.02895822
-0.002085009,-0.0705023,0.007867173
-0.01867534,-0.06148252,0.0361685
0.00783108,-0.04802940000000001,-0.01466521
0.008040782,-0.06695418,0.03265987
0.00651067,-0.02364847,0.02027133
0.1005412,0.01343316,-0.009943716
0.02812792,0.007683489,-0.003418828
0.06339983,-0.01133791,-0.02136484
0.02802765,-0.0002469569,-0.0145453
0.017618599999999998,-0.008168327,-0.02707417
0.04172843,-0.04903883,-0.02308241
0.02639816,-0.02089953,-0.03407095
-0.01530187,0.05363547,0.004115362
0.006122012,0.04268768,0.02930881
0.03846044,0.01700014,0.05223691
-0.07711447,0.031667900000000006,0.04740558
-0.04872277,-0.0177455,0.01572713
-0.04657201,-0.08594801,-0.03200934
-0.03105106,-0.06923077,0.01107532
-0.01559503,-0.06447405,-0.01938766
-0.03629974,-0.09313931,-0.009579180999999999
0.017942700000000002,0.001976952,-0.06126623
0.05008256,0.01765259,-0.07522884
0.00606885,-0.06240612,-0.04381178
-0.0053486340000000005,-0.03073167,-0.02241462
0.012270200000000002,0.05993672,-0.03849453
0.008595251,-0.01185142,-0.003782145
0.03379799,0.04809662,-0.0034786490000000003
0.02438448,0.04018546,0.03949839
-0.009195461,0.03166794,0.03625853
-0.004715168,-0.06834506,0.01359773
-0.01650339,-0.05163874,0.008804373
0.007990155,-0.09892184,-0.03585788
-0.02504143,-0.01365383,0.0702543
-0.007239355,0.03762497,0.05067039
-0.01298058,0.07118051,0.05852096
-0.0257065,0.02051296,0.02854243
-0.06978961,-0.0279666,0.008868478
-0.02264347,-0.1048576,-0.03236872
-0.01862253,-0.05907845,-0.06576554
-0.01935092,-0.04749966,-0.02360791
-0.01532802,-0.02824108,-0.03248722
0.01762707,-0.02112167,-0.0033839890000000004
0.04149148,-0.03406463,-0.03457905
0.01697758,0.02648356,-0.006148059
0.02499111,0.0079138,0.01348562
0.05299628,0.01246033,-0.01471029
0.038324800000000006,-0.04050102,0.005813916999999999
0.06173969,-0.02931229,0.009628156
-0.01239525,0.03053802,0.0158322
-0.01062322,-0.02336098,0.0408653
0.02852426,-0.02370464,-0.02999448
-0.02620948,-0.01705206,-0.005426706999999999
-0.01474375,-0.042884399999999996,0.008363833000000001
-0.02848042,0.04344556,-0.05597504
-0.0002334521,-0.002175809,-0.00276443
0.009525839,-0.03844013,-0.01486578
0.03309381,-0.0467399,-0.03892217
0.03013754,-0.06256068,-0.06113132
0.02008644,-0.06821601,-0.01745145
0.039506,-0.01023553,-0.0003612339
0.03357479,-0.005373477,-0.01759812
0.0028500820000000003,0.02152136,-0.01221053
0.01837037,-0.02159526,-0.01295401
-0.02078883,-0.004010987,-0.01007021
0.03676464,-0.0001228731,-0.02672978
0.014392199999999999,-0.001423148,-0.01731762
0.008009835,-0.04639359,-0.0103115
-0.02698326,-0.009264046,-0.004087225999999999
-0.06219155,-0.006846206,0.04341329
-0.0038541659999999996,0.024674099999999997,-0.01833499
0.01225339,0.00704929,-0.02496677
0.01352825,-0.02561767,-0.03224562
-0.006918446,-0.01673358,-0.03059028
0.02113883,-0.08414152,-0.0324263
0.01259833,-0.005497724,-0.02717507
0.03313962,0.0004760595,-0.03697608
0.03218182,0.04300928,0.01181212
-0.01669871,-0.0074410069999999995,0.018862999999999998
-0.004786739,-0.05292547,-0.02205805
-0.002765725,-0.04024176,-0.0032217870000000003
0.02895063,-0.01208469,-0.03772186
-0.01012901,0.01477831,0.0026830870000000002
-0.006993472,0.03098282,0.02800639
0.02341055,-0.01395285,0.01133737
-0.01760349,-0.03663,-0.002391139
0.01244628,-0.02215097,-0.01788091
0.005474335,-0.01537208,-0.01220982
-0.01627513,-0.01231919,-0.01796165
0.0075236719999999995,0.02192809,0.001619994
-0.043457800000000005,0.02355304,0.0280616
-0.01469378,-0.03556446,0.03255184
-0.001081795,-0.01849879,0.01339992
-0.01688242,-0.01791036,0.003243573
-0.007439065,-0.07852571,0.01178168
0.01504484,-0.07310269999999999,-0.01240963
0.01634367,-0.0676543,-0.00017492849999999998
-0.02894598,-0.05524021,0.03598098
-0.02009519,0.07009167,0.03063017
0.03610125,0.01764265,-0.01559314
0.003711575,-0.006396591,-0.02995729
0.01792065,-0.010188299999999999,-0.0169457
-0.01271238,-0.01711203,-0.01301047
-0.04269309,-0.04219766,0.005268063000000001
-0.01187907,-0.03559873,-0.01774288
0.02394726,-0.01358062,-0.03229427
0.006853735,0.0264307,0.04194468
0.008624146999999999,0.05322002,0.00325886
0.02679973,0.02417568,-0.01335237
0.01102251,-0.08042866,0.0125156
0.0031532170000000003,-0.05157321,0.001603015
-0.01002266,-0.0343533,0.01059344
0.03198306,-0.0059567,0.005308495
0.03168155,0.026987,0.02885081
-0.01347845,0.03430649,0.03152129
0.022656700000000002,-0.03796279,0.0106725
0.02952381,-0.04291464,-0.01336559
-0.01104443,-0.1250815,0.03107161
0.0016913660000000001,-0.04413789,-0.0005160645
-0.008482924000000001,-0.01899941,-0.0009854049000000001
-0.01259384,-0.06609864,-0.01212749
-0.03093018,-0.09733778,0.004073281
0.02008725,-0.102393,-0.0195546
-0.006810413,-0.06095576,-0.02079905
0.0045197959999999995,-0.01865221,0.02118056
0.013106999999999999,0.06033138,-0.006000148
-0.01325446,-0.0141623,0.00477199
0.02148415,-0.0026290790000000003,-0.01881997
-0.0018387,0.02945021,-0.0036774579999999998
0.01685609,-0.01228717,-0.02464409
-0.02447945,0.03306923,0.01474528
0.01442848,0.06733213,-0.004966872
0.03731129,0.003235885,-0.00122856
0.0331654,-0.00945826,-0.03564968
-0.008712306999999999,-0.06845976,0.03972857
-0.005911779,-0.04645716,0.00814005
0.03888784,-0.03758086,0.008605425
0.05261876,0.1312404,-0.0509096
0.0174216,0.2159402,-0.01302826
0.00995766,0.11226459999999999,-0.0544372
-0.04677351,0.06804581,-0.0876831
-0.05746159,-0.06555946,-0.1069098
-0.02991768,0.06385655,-0.10543599999999999
-0.02993883,0.1530466,-0.08203173
0.02351667,0.1511809,-0.05785449
0.004852027,0.09557433,-0.02907694
0.1456714,-0.03927042,-0.10803299999999999
0.144268,-0.1787155,-0.12362550000000001
0.10102280000000001,-0.12702239999999998,-0.10840919999999998
0.09004585,-0.1572301,-0.03613022
0.0388837,-0.06470899,0.04015593
0.02493065,-0.0504392,0.03213412
-0.01266763,-0.07077445,0.03340082
0.003820511,-0.17973429999999999,0.02633202
-0.003143683,-0.2450618,0.04915696
0.007266458000000001,-0.14781070000000002,0.05812417
-0.01973717,-0.12730460000000002,0.05958991
-0.04277974,-0.05153858,0.01625392
-0.01893584,-0.16761189999999998,0.04572392
-0.06013187,-0.08528031,-0.01901064
-0.07154414,0.0006168708,-0.02688205
-0.09818953,0.1189786,0.06590718
-0.05363689,0.08364888,0.06920114
-0.05709779,0.1021145,-0.01038989
-0.01014204,0.07581381,-0.01451137
-0.05335271,0.07613467,-0.0038805059999999997
0.01728436,0.03699642,-0.05823838
-0.02005508,0.02139832,-0.0545385
-0.006659949,0.03923139,-0.04756663
0.009695648000000001,0.0014122260000000001,-0.03555235
-0.06373563,0.0126163,0.01865713
-0.009831580999999999,0.02658493,0.07683171
0.006935279,0.05569768,0.03974657
0.03733686,0.0372366,0.06374764
0.0064978530000000005,-0.05777127,0.08461656
0.02518462,-0.06812996,0.07803136
0.005510636,-0.10600919999999998,0.112686
0.02857855,-0.09914343,0.09105234
0.009554733000000001,-0.07678163,0.1314854
0.03743173,-0.1188141,0.1037145
-0.01528594,-0.087283,0.13769589999999998
-0.0167753,-0.07745729,0.1103172
-0.02930557,-0.04852919,0.138269
-0.0055452209999999995,-0.01994913,0.07403082
-0.0174517,-0.05840719,0.02105008
-0.04366124,-0.08469969999999999,0.03314073
-0.08390782,-0.06483488,0.05658314
-0.08257759,-0.05244949,0.04698055
-0.05725786,-0.02609503,0.02233653
-0.07055455,-0.03733916,0.0315651
-0.06579401,-0.0023554789999999997,0.03383541
-0.05228575,0.03202789,-0.008037757
-0.04055379,0.05126724,-0.01926865
-0.03662419,0.01631922,-0.02082517
-0.02659572,-0.1470171,-0.03154086
-0.02289959,0.06173224,-0.03231961
-0.004929376,0.09135064,-0.02868848
-0.01650211,0.08901086,-0.0007983721
0.02403721,0.05153856,-0.01418979
-0.005533872,-0.03131645,0.02603454
0.0378245,-0.01886481,-0.03168967
0.05237292,0.02412609,-0.06943356
0.03009741,0.006502681,-0.03690255
0.0697595,-0.02251411,-0.06861063
0.03158039,-0.02552671,-0.0298452
0.04271035,-0.002684573,-0.03048077
0.03847127,-0.03004196,-0.04676846
0.03497804,0.01336062,-0.06642319
-0.0074100830000000005,-0.01829985,-0.002354432
0.02931928,0.006846018000000001,-0.01577227
0.02342672,-0.02955514,-0.01799317
0.02666867,-0.05133668,-0.03106238
0.008359778,-0.04761007,-0.03564615
-0.002728075,-0.0251145,-0.03521042
0.005524768,-0.0186753,-0.03035373
0.03127383,0.02798478,-0.05944806
-0.003105236,0.009145216999999999,-0.03752109
0.02135281,-0.03117963,-0.03526914
0.007249596,-0.003969081,-0.039132400000000005
0.01781562,-0.010789299999999998,-0.04414082
-0.02535452,0.0029962490000000003,-0.02158925
0.02825747,0.04560645,-0.08868295
-0.01195938,0.06088591,-0.06863512
0.01477686,0.02306004,-0.0572066
-0.003825688,-0.03454616,-0.03411279
0.02453737,0.04714058,-0.07739125
0.02218593,-0.0170542,-0.08293386
-0.0027142190000000004,0.027666399999999997,-0.02021915
0.02973128,0.04872107,-0.07261109
0.0252521,-0.01121487,-0.024129499999999998
-0.02290086,0.08780788,-0.01185099
-0.00135966,-0.03648039,-0.001962941
-0.01392499,-0.005010873,0.0042981320000000005
-0.001574531,-0.01246684,0.0280297
