Acc_x,Acc_y,Acc_z
0.002792116,-0.0008679889999999999,0.008142851
-0.008130269,0.02272297,6.9790989999999996e-06
-0.02034115,0.004671143,-0.006336402
0.002424845,-0.004730599,-0.001986941
-0.03974344,-0.01941455,-0.0009064768
0.002680674,0.01288183,-0.0009341058
0.02064989,-0.02606982,-0.03399129
-0.01508328,-0.0489211,0.01277452
0.02497748,-0.02956977,-0.03924268
0.02282636,-0.05243061,-0.007100537
0.009939519,-0.05796519,-0.001978067
0.02975446,-0.0790071,0.01866219
0.03266023,-0.06799278,-0.02719794
0.005803665,-0.03673061,0.01246726
0.03169266,-0.02352695,-0.02207361
0.01523749,-0.002024273,-0.01612298
0.01111062,0.01866405,-0.02737073
0.03127138,0.0009349073,-0.04836068
0.008323714,0.02042157,0.004186288
0.01754684,-0.01583675,0.01308319
0.01406818,0.01483908,0.01452929
0.01357977,0.03124243,0.002928902
-0.0176743,0.08997104,0.02902044
0.01153907,0.03473127,0.03592654
0.0013265360000000001,0.006464493000000001,-0.015302600000000001
-0.01083226,-0.08720849,0.007525913
-0.0483825,-0.03836115,0.00047113559999999996
-0.02027686,-0.08653186,-0.01161206
0.02484685,-0.05129457,-0.03633162
0.004609575,-0.005263256,-0.01995897
0.02692465,-0.02179719,-0.001276438
-0.02192106,-0.03199557,0.01264418
0.01257168,-0.040702499999999996,-0.01359907
0.004091186,-0.04261832,-0.001029187
0.04511869,0.01080427,-0.00169399
0.02037991,0.01851017,0.02072594
-0.01809194,0.049581900000000005,0.05251855
0.00367835,-0.04637021,0.05458811
0.05217076,-0.02154163,0.01042566
0.04318667,-0.06099732,0.02210272
0.02364997,0.006809406,0.02203251
0.02274441,-0.0408583,0.01019573
-0.0072648090000000005,-0.02188052,0.01358109
0.01747112,-0.06809591,-0.0018962739999999999
0.02436076,-0.01507201,-0.0071715680000000006
-0.004803204,-0.05961506,0.007460254
0.04119518,0.009605054,-0.03146459
-0.00736432,-0.01744924,-0.00901586
0.0131377,-0.03941786,0.01030432
0.001242213,-0.01740573,-0.01147126
-0.02405482,0.006645171,0.008764466
0.02826154,0.001559963,-0.02354483
-0.03110307,0.04407832,0.01683855
0.01800019,0.06998692,0.00040328410000000004
0.02000495,0.02922189,-0.009853953
-0.01731605,-0.028431099999999997,0.01292694
-0.02752629,-0.07184257,0.04430022
-0.01345539,-0.05113611,0.009143505
-0.03178907,-0.02721431,0.04997414
-0.02832859,-0.05130951,0.05355451
0.01687424,-0.05123032,0.0007417513999999999
0.004312212,-0.04709962,0.02049562
0.004997849,-0.05622919999999999,0.02165001
-0.01601514,-0.07152548,0.02180646
-0.01170157,-0.06124498,0.03244238
-0.02007776,-0.06890598,0.02123828
-0.001972921,0.002404794,0.02057616
0.01449805,-0.0020904170000000002,0.00977688
0.009541888,-0.03403321,-0.0025219879999999997
0.001098515,-0.02126735,-0.01526372
-0.06762427,-0.01607978,0.03657967
0.008034602,-0.05453761,0.02615399
-0.01635646,0.004645277,0.00624934
-0.0116465,-0.03052898,0.02155558
0.01747677,0.03235224,-0.009585066
-0.04248225,0.05354809,0.004886651
-0.04569194,0.03102934,-0.02293672
-0.05060221,-0.0214609,-0.02541238
-0.04215347,-0.014029399999999997,-0.04093724
0.001371756,0.02051754,-0.06750838
-0.04318903,0.05782433,-0.03983226
-0.03700226,0.04470398,-0.04736979
0.007259651,-0.01540817,-0.03811449
-0.01271383,0.0047893070000000005,-0.05041788
-0.05379682,-0.003001342,-0.01519412
0.03054155,-0.01568123,-0.03998367
0.07588869999999999,0.002108719,-0.04681632
0.04234057,-0.03958806,-0.01543865
0.05637707,-0.03069388,-0.006880485
0.02713761,-0.03493505,-0.01105323
0.002435765,-0.009898473,0.01640592
-0.009333036999999999,-0.02807703,0.05751505
0.03050611,-0.09187575,0.04159663
0.05290007,-0.12086969999999998,0.03465429
-0.00133409,-0.09576121,0.03658304
0.03565191,-0.03029017,-0.004543715
0.002073221,0.03788982,-0.02093062
0.01558921,-0.05723361,-0.004868638
0.03145481,0.009872433,-0.03507408
0.03901313,-0.00744505,-0.027569299999999998
0.04553277,-0.00568499,-0.008163641999999999
0.047802,-0.01000804,-0.02158632
0.03268778,-0.06046144,-0.02084545
-0.006918837,0.01937931,-0.02242014
-0.009429116999999999,0.02139513,-0.01633488
0.01381687,0.03648053,-0.01496092
-0.01050093,0.0214484,0.005559419
0.005499481999999999,-0.01434403,0.01232858
0.0008761552000000001,0.04161093,0.01750912
0.01101199,0.004322583,0.03287047
-0.02892354,-0.03964644,0.08550262
0.05878577,-0.01684464,0.02800349
0.08093357,0.1436299,0.15127620000000003
0.08264655,0.3802222,0.1547208
-0.0645473,0.3213107,0.2095571
-0.08665149999999999,0.04237308,-0.01729124
-0.07524684,-0.32435820000000004,-0.08820508
-0.07896217,-0.4329024,-0.24702689999999997
-0.07244593,-0.45476459999999996,-0.234621
-0.08681894,0.03026439,-0.09085614
0.02256683,0.133526,0.03781087
0.18748489999999998,0.08294609,0.03271062
0.138854,-0.03892855,-0.004805043
0.03363484,-0.1662515,-0.07690215
-0.02615962,-0.11634480000000001,-0.03517312
-0.05554838,-0.008238994,0.005119288
-0.04391849,0.188335,0.04743918
-0.019967500000000003,0.0298793,0.06561126
-0.0498231,-0.004116692,0.05285446
0.003602039,-0.05443006,-0.04837036
-0.05767469,-0.02539945,-0.0288106
-0.06239989,0.02109978,0.02590037
-0.03850157,0.02705017,0.02586414
-0.0038452670000000003,-0.1191127,0.002089656
0.0115166,-0.03027085,-0.04673693
0.06978122,0.0143747,-0.032582799999999995
0.04807046,0.123044,0.01685607
0.0062011819999999995,0.04274845,-0.03303449
0.04006515,-0.04253604,-0.0060486640000000005
0.008731697,-0.04800784,-0.036872
0.0252637,-0.1075912,-0.0523604
-0.04581623,-0.17583020000000002,-0.02690149
-0.06513319,0.05363715,-0.03761343
-0.01643542,0.06250130000000001,-0.02725862
0.01410866,-0.01868135,0.02975159
0.02907212,-0.02282301,-0.0050267490000000005
-0.004238006,-0.01569057,-0.01669203
0.03808064,0.08738412,0.02846494
0.03904552,0.01393565,0.03010312
0.05798674,0.0178904,0.00598147
0.006152135,-0.01217019,0.0107621
0.049412300000000006,-0.03597907,0.0032767820000000002
0.01254219,-0.04547533,0.013362100000000002
-0.01724782,-0.03823807,0.01458177
-0.01450278,-0.04347035,-0.002138246
0.01863255,-0.05589991,0.01123144
0.010360600000000001,0.03290559,0.02492699
0.04911656,-0.05962808,0.03495128
0.009944478,-0.04072385,0.03822029
0.03258353,0.01059142,0.01215424
0.03197054,0.002246812,0.022737
-0.01672588,-0.02627641,0.01144212
0.01890475,-0.05324475,-0.0043126020000000004
0.01279168,-0.02666357,-0.03299632
-0.002130412,-0.06658787,-0.02344427
0.03476613,-0.02268509,0.0126897
0.04754868,0.0159807,0.004066594000000001
0.0323564,-0.01396763,0.001983602
0.04170824,-0.01208478,-0.001278635
0.04998193,-0.01833038,-0.02228655
-0.007470002,0.005129941,-0.02745475
-0.01339114,-0.01342422,0.02064613
-0.003782732,-0.02985231,-0.006056118
0.003109715,0.015749600000000002,0.01132949
-0.00856254,-0.01108396,-0.01337526
0.0029326290000000004,-0.01049105,-0.007986694
-0.008021439,0.003150433,0.00161658
-0.02421833,-0.006941134,0.02139078
-0.02262562,0.02705292,-0.02733375
0.03016962,-0.0457519,-0.008909931999999999
0.001037144,-0.06064630000000001,0.0194554
0.02110676,-0.06008548,-0.0007672077
-0.01199368,-0.05041443,0.03861325
0.02038962,0.003104912,0.008142768
0.04360357,0.04380024,0.003942091
-0.00329091,-0.002842322,0.008569634
-0.07026597,-0.01252363,0.03320344
-0.01041148,-0.07284547,0.007139922
-0.01152062,-0.04219017,0.01877945
-0.01413856,-0.02848309,0.006561544
-0.05495839,-0.01059929,-0.01071378
-0.02965146,0.004639417,-0.003130435
0.003587119,0.01224154,-0.03925394
0.03498675,0.04360557,-0.04243813
-0.0186416,-0.07311799,-0.0026008439999999997
0.01504729,0.01804167,-0.02589479
0.01782775,-0.05630422,-0.001417464
0.02584657,-0.06317942,-0.001153062
0.002203059,0.0366422,-0.02707194
0.01270302,-0.009816563,0.009863782
-0.0017333420000000001,-0.008207198,0.03516123
0.003346483,-0.01548935,0.02901508
0.01629798,0.009262115,-0.005305611
0.023885299999999998,-0.03779423,0.01813448
0.0231914,-0.02665877,-0.003938377
-0.01395105,-0.01330134,-0.007450718
0.05653674,-0.0394645,-0.03410259
-0.001074072,-0.01794253,-0.02178575
-0.004136974,-0.03352438,-0.01923269
0.02409021,-0.0450513,-0.002859353
0.002581122,-0.004398255,0.009600387
0.04341037,-0.02531679,-0.004067367
0.01351112,-0.001642899,-0.018246900000000003
-0.001997692,0.01354567,-0.00577103
0.01916295,-0.03491326,0.000127295
-0.03858441,-0.02175803,0.02396693
-0.005899407,-0.01860443,0.003456646
-0.04048865,0.01532967,0.0018579739999999999
-0.01847957,-0.008275785,0.0206231
0.01407292,-0.005372378000000001,-0.01128602
0.04389602,-0.002413021,-0.01333695
-0.02637307,-0.0332617,0.04600484
-0.01701595,-0.02447991,0.02308292
-0.02799164,-0.004063565,0.02196421
0.05125715,-0.06039261,0.02116777
0.009810102,-0.05412257,0.02013893
0.0006605536,-0.01903461,0.01943333
-0.0052871559999999995,-0.03723219999999999,0.02207792
-0.03549787,-0.022584200000000002,0.0220292
0.02878568,0.02273065,-0.0008895592999999999
0.005536202,0.01358413,0.01914371
0.01819809,0.013841200000000001,-0.007200826
0.02100042,-0.00417286,-0.00507193
-0.01944357,0.01506476,0.01745028
0.004388973,0.02601544,-0.0027255440000000003
3.011525e-05,-0.046491500000000005,-0.01220636
-0.02565921,-0.01191505,-0.0003158282
-0.01140626,-0.0054850359999999996,-0.01241432
-0.02241816,-0.06312911,0.007587686999999999
0.01645856,-0.02410756,0.002823209
-0.01253035,0.00288282,0.02343358
0.002937559,-0.03288557,0.02939286
-0.02757755,-0.05323096,0.0162094
-0.01721075,-0.05476443,-0.02591978
-0.0005245365,-0.06120409,0.006888485
0.01052108,-0.05868364,-0.03290329
-0.03273557,-0.009507218000000001,-0.008617995
-0.03173265,-0.01923566,0.007567506999999999
-0.04230322,0.01920002,0.004435763
0.01802814,-0.04698648,-0.006387001999999999
-0.001177598,-0.03469473,-0.02259048
0.003023315,0.005133491,-0.004631121
0.05411598,-0.04728089,-0.03360706
-0.007203894000000001,-0.006129758000000001,-0.008088535
0.007418235,-0.04615658,0.0132474
0.01000082,-0.06189802,0.003524427
0.02186174,0.02648052,0.011017
-0.01667639,0.0205643,-0.00106853
0.02273934,-0.01813777,-0.01423028
0.01121244,0.08648008,-0.03815516
-0.04289325,0.05203912,0.00755988
-0.00689864,0.004643477,0.0112397
-0.006178984,0.02849351,-0.04502907
-0.009640115,-0.0459922,-0.01155325
0.01132544,-0.03845055,-0.01148572
-0.01142209,-0.01567562,-0.004672813
-0.0228208,-0.03130491,-0.0043735
0.06315253,-0.006811824,-0.047309500000000004
0.006472666,0.02589199,-0.03815046
0.01166443,-0.01876337,-0.01344612
0.009473542,0.0005505607,-0.005788299
0.02872854,-0.02621482,-0.01467529
0.01149306,-0.04908733,0.01338587
0.02512675,-0.04892695,-0.0037383029999999997
-0.03528104,-0.02728586,0.03275394
0.01780488,-0.01792372,-0.01077273
0.01756756,-0.05816626,0.02226229
0.04607917,-0.0624653,0.0009473283
0.01153169,-0.03586043,0.0161092
0.03736199,-0.03570053,-0.01796021
0.03641278,-0.01369475,-0.02961218
0.06317984,0.004888611,-0.01684132
0.01446707,0.01985834,0.02389581
-0.02580093,0.02798308,0.004651506
0.005062727,-0.06536497,0.01534779
-0.03584038,-0.0642048,0.007904906
-0.0450832,-0.041227099999999996,0.001230741
-0.007960084000000001,-0.04562444,0.01741651
0.006134154,0.02844946,-0.008669299
0.01166932,0.05648884,-0.01196425
0.00043286860000000003,0.03834762,-0.003427296
-0.0023933000000000005,0.01906246,0.003705219
-0.03886568,0.03681102,0.007936049
-0.02910705,-0.01081619,0.01150784
0.001369449,-0.009281033000000001,-0.02787238
-0.03812426,0.007566818,-0.005154222
0.03885062,0.01014167,-0.02168848
0.001643605,0.02259971,0.01121022
0.01453369,0.03789506,0.002643644
0.01237613,-0.0049775340000000005,-0.009137456
0.01869256,0.03670408,-0.02191881
0.01564445,0.02730857,-0.04085395
-0.03427731,-0.05445979,-0.03620575
-0.03066208,0.01120039,-0.05101731
-0.008177166999999999,0.002758531,-0.05917741
-0.05728434,-0.01876769,0.008145768000000001
-0.03118542,0.038808300000000004,-0.03095336
-0.00035068860000000003,-0.01806056,-0.02388006
0.01529724,0.002000339,-0.04813842
0.004249458,-0.03291314,-0.02120201
0.02242344,-0.03704323,-0.02551743
0.004220777,-0.03176164,0.01286691
0.01420285,-0.05166857,-0.02796862
0.01373299,-0.02320578,-0.01324247
0.01133298,-0.009090181,-0.004472099
0.04109199,0.03431612,0.007981088
0.007178835,0.01544703,0.02666896
0.0124119,-0.04036569,0.01657346
0.005990267,-0.01416716,0.006718775
-0.00842677,-0.07585039,-0.004217806
-0.02467217,-0.01970998,0.01296175
-0.02322236,-0.03666924,0.00659743
-0.0009027671000000001,-0.07525907,0.0052757130000000005
0.001128495,0.03118506,-0.0021916270000000002
0.027703600000000002,0.04036245,-0.01935447
0.01848995,0.01476145,-0.005946534
-0.01537957,-0.003516627,-0.009835128
-0.03747971,-0.02525071,0.0223
-0.006282173,-0.001604132,0.01846109
0.03116841,-0.04460382,0.04057348
-0.0033177370000000003,-0.02134998,0.03401619
0.008134875,-0.0466047,0.02929812
-0.005437761,-0.02718294,-0.002944252
0.01202082,-0.01058093,0.02610752
0.03405258,-0.03517993,0.03695257
0.01303465,-0.02304871,0.01156374
-0.01987116,-0.09687157,0.06841664
-0.01621575,-0.04426572,0.04655678
-0.03393319,-0.06257858,0.02788813
-0.030340499999999996,-0.05092453,0.04068433
-7.242104e-05,-0.03411363,0.01423948
0.01393247,-0.00150858,0.01283408
-0.01361045,-0.06174309,0.05310877
-1.5349129999999997e-05,-0.08411306,0.02923549
0.02666624,-0.01697958,-0.01482342
-0.01713758,0.03586057,0.04181764
0.03626961,0.03713192,-0.02378013
0.02864765,0.01930238,-0.02623581
0.04777106,-0.03505293,-0.01821806
0.02515037,-0.02895465,-0.02549779
0.02095822,-0.006656863000000001,0.00362014
0.04708046,0.005590894,-0.01191776
0.03034112,0.01413762,-0.01878469
0.02151807,-0.02258702,0.01318296
0.01596241,-0.03342606,-0.009538026
-0.01192707,0.006825606999999999,-0.01538172
-0.0442289,0.1195361,-0.02954376
0.002023285,0.15632970000000002,-0.001437411
0.01771337,0.23289520000000002,0.08180454
-0.09065464,0.30007259999999997,0.03747085
-0.01427258,0.09376392,0.04314453
-0.04052103,-0.01383916,-0.000327602
0.0234506,-0.24246529999999997,-0.1059529
-0.0107365,-0.2758682,-0.1460144
0.006892366,-0.21877800000000003,-0.06749351
-0.01116522,-0.12359180000000002,0.0009020106
0.0009843967999999999,-0.03933087,0.06974454
-0.04365622,0.10251199999999999,-0.03877763
-0.01598115,0.02553485,-0.01659084
0.01784844,-0.09069949,0.04615688
-0.009691145,-0.08316928,-0.01386479
0.0006194816000000001,-0.01647754,0.004740039000000001
-0.04425456,-0.07194525,0.04565408
-0.01022715,-0.1191114,-0.0004357253
-0.04454225,-0.21941739999999998,-0.02540346
-0.0335323,-0.1465435,0.01033569
0.01931564,0.04414574,-0.007652873
0.03783247,0.260343,0.03877521
0.03848725,0.1447076,0.02954924
0.0003524963,-0.08565383,-0.06561986
-0.05645979,-0.05151656,-0.08950067
0.004818698,-0.07857759,-0.03490984
0.03174719,0.007121461999999999,-0.07027018
0.04976534,0.11259870000000001,0.009049846
0.05717833,0.08881263,-0.008250199
-0.0070156509999999995,0.08241315,0.04221246
0.05747515,0.01503291,-0.01229603
0.05830321,-0.0634371,-0.031645599999999996
0.01066474,0.03527889,-0.02869914
0.01608261,0.09493999,0.02411607
0.04249757,0.10549289999999999,0.01095192
-0.02208919,0.06762451,0.06833696
-0.05361180000000001,-0.02670639,0.03411892
-0.0423223,-0.10823410000000001,0.05310821
-0.03537291,-0.1024059,0.01314608
-0.02374689,-0.13243010000000002,0.08125561
0.0211457,-0.12052169999999998,0.01142677
-0.0447411,-0.1249317,0.07152317
-0.003169995,-0.08352447,0.08640684
-0.02159446,-0.03628209,0.07589148
-0.0006712153999999999,0.0014719070000000002,0.0665779
-0.01032212,-0.050301599999999995,0.05890116
0.01235759,0.01053601,0.00330149
-0.03728355,-0.02448383,-0.005181978
-0.01869711,-0.08087684,0.04199226
-0.02289784,-0.05192763,0.05196489
0.02496088,-0.06361569,0.02054383
0.003559099,-0.02965987,0.03138494
-0.05172367,0.02132731,0.05963282
0.001353528,0.06047548,0.02410341
-0.0128702,-0.03569724,0.01889005
-0.02640126,-0.03882957,-0.037972399999999996
-0.01061072,-0.04164824,0.006080576999999999
-0.01684254,-0.01214214,0.009006452
0.002095128,0.03946843,0.01561851
-0.00167561,-0.02968907,0.02337624
-0.04656577,-0.01701754,0.02426379
0.03827449,-0.01743032,-0.01835086
-0.03426941,-0.04174635,0.004072107
-0.035167000000000004,-0.06938128,-0.002851427
-0.05263451,-0.03397899,-0.0242453
-0.03925903,-0.04519804,-0.02404322
0.0162893,-0.08010352,-0.04616924
-0.007951696999999999,-0.02123068,-0.04303875
0.04035458,-0.02234131,-0.03220632
0.008559863000000001,-0.03900249,-0.030189799999999996
0.01124628,0.01002811,-0.04222055
0.03400374,0.02249357,-0.04810882
-0.005407928,-0.01181978,-0.03282418
0.04099035,-0.01109819,-0.04602567
0.02597735,-0.01103767,-0.04110483
0.01270259,-0.0168278,-0.012425499999999999
0.03346209,0.06913717,-0.04754718
0.03186387,0.003324505,-0.020303599999999998
0.01282497,0.02978504,-0.03068196
0.02308871,-0.02375967,-0.05958319
0.00027163700000000003,-0.01145834,-0.02409593
-0.01129707,-0.0006649122,-0.02093686
-0.03095967,0.01268866,-0.02478604
-0.022902799999999997,-0.03037488,-0.02341066
-0.05936905,0.02051772,-0.0005226508
0.01571766,0.0020736120000000003,-0.04973725
-0.0031341579999999997,-0.01327725,-0.0450519
0.01124759,0.0123974,-0.01750489
0.04276527,0.0006655566000000001,-0.03668999
-0.006367075,0.04265229,-0.01698292
-0.02064969,0.05383001,-0.00954829
-0.03128575,0.005528148,0.01764168
0.03275846,-0.005418816,-0.02982421
0.008860836,-0.04938847,-0.001202167
0.01160548,-0.05926589,0.001615498
0.009385417,-0.00687455,-0.02770489
0.009461470999999999,-0.010015000000000001,-0.008174082
-0.006531664,-0.06146035,0.02481005
-0.005417536,-0.06842856,0.02094202
0.002333654,-0.03727701,0.008444011
0.0518674,-0.006110625,0.00192585
-0.001561049,-0.03985642,0.02394586
0.01363709,-0.006262623,-0.01263964
-0.01864682,-0.02876236,0.004300897
0.028186799999999998,-0.0306966,-0.005999059
-0.003141005,0.00634165,0.032013
0.0007095281,-0.004406118,0.013275
0.006336987,0.005944804000000001,-0.008373633
0.01781201,-0.004022994,0.003484772
-0.03661451,0.008323096,0.02053595
-0.006362901999999999,-0.01184629,0.02332966
-0.0289569,-0.03144766,0.01858034
-0.0064345209999999995,-5.620997e-05,0.007903008000000001
0.003615394,-0.03711707,0.003582089
0.02987665,-0.02877034,0.008906059000000001
0.04404705,-0.001052417,-0.009418684
0.02185273,0.01683622,0.02408181
0.01824791,-0.012819899999999999,0.03608534
0.01112616,-0.008716047,0.01762825
-0.02306186,0.01682984,-0.0006655715
-0.02526505,-0.02146752,-0.01466574
0.01578046,-0.03472884,-0.03443244
0.07211128,-0.03633277,-0.04561408
-0.04079466,-0.05424879,0.01246274
-0.02181199,0.001501519,-0.01307223
-0.01987514,0.002128958,0.001027245
0.00565499,-0.02682413,-0.006210912
-0.03318752,-0.04063161,0.004769655
0.004683845,-0.01521504,-0.01176303
-0.0386719,0.004023485,-0.01211898
-0.0007761658,-0.05369417,0.0018070979999999998
0.002293188,-0.01606152,-0.01915053
-0.02128672,0.0034244690000000003,0.0006633772999999999
0.02895997,0.04283147,-0.03194956
0.003311246,0.02481383,0.00904684
0.03852786,0.03471771,-0.02822472
-0.03400888,-0.02593086,0.03617306
-0.00471792,-0.008983368,0.019428599999999997
-0.004216726,0.023329,-0.03399871
-0.01483255,-0.02484833,-0.01818645
-0.007452335,-0.03396063,-0.01653315
-0.01299285,0.00178487,-0.009077732
0.007441519000000001,-0.008895988,-0.005880958
0.01667791,0.04220271,-0.0264837
0.01548031,0.02811804,-0.03555311
-0.0027194959999999996,-0.001062913,-0.01462178
-0.02034841,0.02245211,-0.01158341
-0.01706901,-0.02485119,0.007900544
-0.02004015,-0.01070528,0.01377646
0.01636228,-0.009531587,0.01529837
-0.01968097,-0.03639832,0.03041486
0.0064724480000000004,-0.03817394,0.0158768
-0.008192741,0.01770146,-0.0048005059999999995
0.0009246671,-0.02389234,0.0008899153999999999
0.005056323,0.01095606,0.01633186
0.04286022,-0.002142157,-0.03384857
0.003301879,-0.03013688,0.01039729
0.02448719,-0.04145791,0.006514081
-0.0074238130000000005,-0.04322378,0.01033083
-0.02134481,-0.09113251,0.03492768
0.01677299,-0.02522754,-0.01968434
0.008899728,-0.03167687,-0.01409826
0.0324649,-0.007462623000000001,-0.01910737
-0.0299536,0.08679739,0.009750575
-0.05800419999999999,0.05252217,0.01265423
-0.020733,0.01150626,3.268477e-05
-0.0019301210000000001,0.002345855,-0.02653423
-0.06384182,0.02428483,-0.0020501129999999997
-0.029144599999999996,-0.003360545,0.01290218
-0.01552432,-0.01072653,0.007878688
-0.0044682490000000005,-0.04564146,0.01940099
-0.01671734,-0.01842156,0.01483554
0.02603113,0.017597400000000003,-0.01095202
0.01516672,0.007514247,0.01126495
-0.006764457,0.003676788,0.01841445
0.009796136,0.005141341,-0.02519906
-0.008490764,-0.02932001,-0.02511727
-0.02208636,-0.01338033,-0.02300165
-0.03071056,0.0007008188,-0.01290006
0.013938399999999998,-0.01425167,-0.02997392
0.01858032,-0.04518211,-0.04054118
0.0155828,-0.01749277,-0.03239247
0.02054342,-0.07894069999999999,-0.02099751
0.05690005,-0.09560791,-0.02165124
0.02051228,-0.0441076,-0.02821256
0.01700456,-0.07365604,-0.02132283
0.001626673,-0.01238939,0.0008428419
0.004304043,0.04887608,0.03207219
-0.01054449,0.0163415,0.04924956
0.04006576,-0.0003973842,0.006694874
-0.002118117,0.06101184,0.01125103
-0.02139884,-0.005799456,0.02688151
0.01657693,-0.02653557,0.00442243
-0.008062788000000001,-0.01337308,0.009208183
-0.01134912,-0.03178721,-0.007760813
-0.04051318,0.01111384,0.007953596
-0.01453344,0.007672075,-0.003031965
-0.01872171,0.0384524,-0.01417541
-0.01567746,0.01291258,-0.03146697
-0.02860512,-0.0122345,-0.002307965
0.005829413,-0.05656894,0.01021816
-0.04537735,0.0239424,-0.002474835
-0.005982035,-0.05639065,0.03399862
0.01964867,-0.00030855650000000004,0.009668311
-0.022052900000000004,0.04109317,0.03880852
-0.0069662859999999995,0.04175412,-0.006563411
-0.01196285,0.01427459,-0.009250002
-0.01722801,-0.02182875,0.002946695
-0.02228237,-0.04094262,0.04090974
-0.02367615,-0.007125391,0.007300131
-0.008748121999999999,-0.00302992,0.02606967
-0.0015434420000000001,-0.07512106,0.0373681
0.01708318,-0.07911395,0.03268875
0.02339858,-0.04916946,0.03325594
0.02027882,-0.05787868,0.02687644
-0.007756887,-0.04626577,0.02635998
0.03792241,-0.041262400000000005,-0.00167905
0.03158984,0.01148712,-0.005141234000000001
0.02392299,0.005254121,0.02530716
0.01341097,-0.0010312210000000001,-0.01278668
-0.0001794861,-0.03844704,-0.006548806999999999
-0.005502745,-0.04704602,0.02017968
0.01432094,0.02808627,-0.0005893898
-0.021593400000000002,0.009818844,0.02006828
0.02903281,-0.0265337,0.03194795
-0.001508825,-0.004452386,0.019566099999999996
0.008172921,-0.06960721,0.03442064
0.005537218000000001,0.03411088,0.03981616
-0.001481082,0.02463132,0.02121563
0.009574465,0.03083602,0.04496606
0.03492774,0.0344798,0.01133151
0.008713215,-0.05169654,-0.01595074
-0.009533251999999999,-0.08976532,-0.02771498
-0.02932323,-0.09543236,-0.0141895
-0.01644708,-0.02026426,-0.02648086
-0.01336348,-0.03933316,-0.009773724000000001
-0.01695657,-0.001476673,-0.03759735
0.02571937,-0.0156621,-0.0320637
0.01260276,0.01142005,0.0018192879999999999
0.03151723,0.023855099999999997,-0.04077515
0.02044172,-0.01598878,-0.03321495
0.060527199999999996,-0.01819808,-0.05225799
0.0005498007,0.02005274,-0.03951293
0.017468400000000002,-0.01226661,-0.01470196
0.04600322,-0.02427326,-0.02454896
0.01404673,-0.03152354,-0.003205585
-0.0046189329999999995,-0.02524482,-0.006904820999999999
0.01293527,0.01053328,-0.04076539
-6.680086e-06,0.009541551,0.0006383843
-0.01164939,0.01540456,-0.00281591
-0.01351819,-0.08707936,-0.0055293009999999995
-0.03215868,-0.01429979,-0.03223914
-0.01011721,-0.05285859,-0.01432571
0.004067408,-0.02312415,-0.04315306
-0.03084761,0.005599209,-0.003158915
-0.02331079,-0.00716273,-0.001282102
-0.003631394,-0.02221871,-0.016789099999999998
0.01354213,-0.03029758,-0.02893765
-0.02320367,-0.02820355,-0.005063636
0.02025942,-0.039601300000000006,-0.009015909
-0.004355849,0.06228779,-0.01618626
-0.04468422,0.06265521,0.0165801
-0.04542826,0.01631117,0.04504167
0.03544964,-0.03232319,0.03803264
-0.001189432,-0.03485416,0.02486441
-0.04114691,-0.002620671,0.0683037
0.0010545110000000002,0.003331992,-0.0017420029999999998
0.01535855,-0.07056326,-0.05722828
0.04528925,-0.05024801,-0.07716966
0.03168437,0.01092594,-0.09167710000000001
-0.005339568,0.1570753,-0.009826032
0.09449037,0.0024737120000000003,0.01451159
0.04568451,-0.01547212,-0.03986969
-0.05958248,0.03621217,-0.11389690000000001
-0.02867298,0.008515522,-0.1308186
-0.01946414,0.1866739,-0.03569326
0.02990351,0.22092089999999998,-0.02451057
-0.04045866,0.1498379,0.04978856
-0.06958719,0.05610136,0.03417604
-0.05723386,-0.03265488,-0.01794546
-0.06373331,-0.0318425,0.01275365
-0.08334013,-0.04169997,0.007938601
-0.05195718,-0.119395,0.05254532
-0.02043205,-0.03539984,-0.09047912
-0.037705699999999995,-0.09621839,0.07355409
-0.007192601,-0.08657334,0.0004368441
0.002912435,-0.05330397,-0.006105055
-0.03181423,-0.03425776,0.001067917
-0.01807315,-0.08894347,0.0008516814999999999
0.04462793,-0.10503019999999999,-0.009850342
0.05077878,-0.03869013,0.006422
0.04751321,0.09232242,0.03008668
0.09632829,0.1296629,0.02938084
0.04409244,0.04137462,0.019009799999999997
0.05688863,-0.06203166,0.01070416
0.008032546,-0.12237329999999999,-0.02666202
0.0049768370000000004,-0.1119652,-0.009770932
0.02271527,-0.06182087,0.008072089000000001
0.005697669,-0.09443299,0.04135801
-0.01922888,-0.1669922,0.04203084
-0.03947249,-0.1475569,0.07584886
0.004418217,-0.1505969,0.06560215
-0.02212594,-0.12385439999999999,0.06460106
0.00027623029999999997,-0.01863004,0.06838576
0.05602336,-0.01911199,0.02202149
0.008461798000000001,-0.03729425,0.05568498
0.00216196,-0.05427525,0.02322936
0.01200254,-0.02976584,0.04858458
-0.007125149,-0.03437575,0.05586634
-0.01174962,-0.01644794,0.034811400000000006
-0.004366912,-0.002554577,0.02919219
-0.02158567,0.02224031,0.008529048000000001
-0.01545868,0.001465224,0.04715275
-0.04105197,-0.05159522,0.04405098
-0.017249900000000002,-0.04568555,0.0042971829999999996
-0.02177659,-0.03614396,0.01846125
-0.04211996,0.0077085569999999996,0.01734696
-0.001770321,0.02636392,-0.01402357
-0.06002016,0.02330573,0.03409985
-0.05995419999999999,0.03178536,0.03259153
0.03171279,-0.04405648,0.01066488
0.001859292,0.007932698,0.002442075
-0.023152900000000004,-0.0001306459,0.01094709
0.03773156,-0.04664389,-0.002534695
0.01788837,-0.05580483,0.03480762
0.007239365,-0.0370305,0.005549724
0.05594821,-0.02879926,-0.01959541
0.008749976999999999,-0.02834002,0.02955453
0.03306515,-0.02193844,-0.01566885
0.01996831,-0.02906472,-0.02509733
0.003374523,0.004645043,-0.01135422
-0.00340464,0.01487158,-0.01783366
-0.004171302,0.001085829,-0.01796955
0.009101915,-0.008570461,-0.03626665
-0.002580626,0.003783812,-0.06212442
0.02169624,0.01714088,-0.02835147
-0.01005171,0.03563527,-0.03415596
-0.002031629,0.02099134,-0.01832263
0.01696867,0.03268079,-0.08594662
-0.01881688,-0.0340616,-0.03314213
-0.01331672,-0.03231069,-0.03392465
-0.007685649,-0.05901137,-0.03561231
-0.01429984,0.00461707,-0.03507205
-0.01063616,0.07443079,-0.02628239
0.02632718,0.08323765,-0.024574099999999998
0.015133,0.01616988,-0.0162802
-0.03142703,-0.06607784,-0.02846433
0.007493677,-0.04345068,-0.04969653
0.00035014190000000003,-0.01575544,-0.06430369
0.02441154,-0.02724028,-0.06473468
0.011136499999999999,-0.04428184,-0.04373994
0.009756804,0.04313833,-0.07362462
-0.0006839577,-0.001072168,-0.03789581
-0.000538243,0.01294716,-0.02582423
0.009280989,0.01158285,-0.06023831
0.03717097,-0.05673288,-0.05184627
0.01942308,0.01482023,-0.04687668
0.00809413,-0.02581834,-0.02781468
0.003197105,-0.07993866,-0.01362887
0.009669773000000001,-0.01664037,-0.01825383
-0.005219616,-0.02606615,-0.02032371
0.01642305,-0.03568058,-0.01181669
0.005233875,0.002383862,-0.01270315
0.01623856,0.02809201,0.002704435
-0.05072135,-0.009572994,0.01892164
-0.013740200000000001,0.01753909,-0.01250916
-0.02320552,-0.06254791,-0.01261739
-0.0009221397,-0.06837991,0.01861456
0.02104034,0.04348697,-0.02593965
-0.02023497,-0.008810670999999999,0.01071035
0.04152469,-0.05524904,-0.01419447
-0.01340357,0.02220367,0.01293621
-0.01827152,0.02101187,0.02218337
0.027477299999999996,0.02495713,0.006396557
0.01048059,-0.006398221,0.02390736
-0.04819157,-0.06502298,0.04921931
-0.00011368,-0.05187814,0.02033172
0.01146387,-0.06484799,0.04491942
-0.00931465,-0.05332665,0.03216992
-0.01408189,-0.01817408,0.03590927
0.0033346020000000003,-0.03317781,0.04580227
0.01758726,-0.01918094,0.03722952
-0.01692892,-0.0014452339999999999,0.05173985
-0.02863153,-0.02762772,0.01977656
-0.01325021,0.001794454,0.01654588
0.00046004730000000004,-0.08092561,0.02601045
-0.03924124,-0.01814256,0.01824248
-0.04115051,-0.05168742,0.04770903
-0.003512716,-0.02909615,0.006973851999999999
0.006306546,-0.02926354,-0.0008421063
-0.0067522580000000006,-0.05233117,0.04523328
0.00016687619999999998,-0.01015577,0.028735300000000002
-0.011788600000000002,0.01175043,0.01107494
-0.02197796,0.009975880999999999,0.03399973
-0.0007481519,-0.008928496999999999,0.01065524
0.01708038,-0.02983885,-0.00809944
0.02885059,-0.05062246,-0.01422245
0.01140819,-0.04615659,-0.003907769
0.00665416,-0.01148968,0.009305121
-0.01128485,-0.006617598000000001,0.04988662
-0.002883198,-0.01983744,0.0189777
0.04788575,-0.003001358,0.002533209
0.05325146,0.008938345,-0.02818434
0.04097427,0.001223726,-0.02501258
-0.02965965,-0.06225953,0.005487434
-0.01846467,-0.04241555,-0.03223438
-0.02797781,-0.0009753965,-0.01814285
-0.01095427,-0.01255666,-0.02251014
-0.007418307,-0.001026519,-0.007876435
0.009178625,-0.04215117,0.0001074225
-0.01052604,-0.03502999,0.006246842
0.0002222778,-0.05154879,-0.009286303000000001
0.01240274,-0.02273039,-0.02974511
0.02272682,-0.005642736,-0.04206678
-0.01863526,-0.01263105,0.009710913
0.02209454,-0.0058474469999999995,-0.01383854
0.02147006,0.0149731,-0.00745013
0.0166351,-0.02109691,0.002076007
0.03956656,-0.01336048,-0.02027874
0.01545258,-0.04948322,0.02864402
-0.01675117,0.002463987,0.02617873
0.02374249,-0.030842200000000004,0.00717159
-0.02267469,-0.04532612,0.004338181
