Acc_x,Acc_y,Acc_z
-0.06199628,-0.03440115,0.009361043000000001
-0.0026367440000000003,-0.01627198,0.02485289
0.02973568,0.0030391290000000002,-0.01028819
0.01640695,0.0169189,0.001116657
0.01586983,-0.03487721,-0.00168914
0.00539093,-0.02293471,-0.003895526
0.03431248,-0.04271797,0.02002677
0.03535946,-0.02928432,0.03817014
0.02547067,0.02475206,0.01001138
0.03890006,0.06416909,0.01089546
0.04573665,0.0331483,0.01611379
0.02378531,0.05604019,0.005684199
0.002153128,-0.01080815,-0.01695727
0.05407846,-0.026255700000000003,-0.0103219
0.08565324,-0.01766391,-0.008879744
0.03249619,-0.03837096,-0.01179718
0.03870175,-0.042165100000000004,-0.002505823
0.03915116,0.02705954,-0.03180691
0.04514188,-0.05693416,0.0026756759999999997
0.03153786,-0.04294045,-0.01589837
0.02383357,-0.008783128000000001,-0.01460829
0.03006602,-0.00354933,0.009768044
0.0002605203,0.00910785,-0.02376744
0.00199773,-0.04193427,0.004144589000000001
-0.0047277859999999994,-0.01916605,-0.00128012
-0.01754075,0.01321717,0.006158675
-0.01483602,-0.008031556,-0.00340808
-0.02788306,0.01187271,0.0007989332000000001
-0.02829514,-0.02859529,0.02011042
-0.03256132,-0.006704516999999999,0.03080246
-0.01853948,-0.04451992,0.01028536
0.01355079,0.0014056539999999999,0.01606499
-0.03216227,-0.02072447,0.01746197
-0.03369817,-0.05410957,0.009971136
-0.00842947,-0.04736421,0.02740958
-0.005889935,0.01517592,0.0026912859999999998
-0.013788900000000002,-0.01455304,0.006000455
-0.04484188,0.0026237929999999997,-0.03763443
-0.05249144,-0.00722714,-0.0208365
-0.04163302,-0.007992063,-0.01115958
-0.04169108,-0.006359666999999999,-0.0036699690000000004
-0.01499195,-0.005104465999999999,0.03666395
-0.02828142,-0.009948425,0.02704937
-0.02033461,0.03239245,-0.00536296
-0.06156255,-0.003591644,-0.01566893
-0.01820008,-0.04339426,0.006688687
-0.006376999,-0.008385368,-0.01802043
-0.06418279,-0.1094222,-0.02168896
-0.02621003,-0.08658446,-0.01638345
0.004583539,-0.07783885,-0.0005834312
-0.04365662,-0.01411204,-0.01366954
-0.02397434,-0.04916554,0.006503551
-0.01489457,-0.01670966,-0.01318191
-0.02733596,-0.04145528,-0.0109468
0.03907811,-0.02144038,0.002740575
0.03914013,-0.06529817,4.4476239999999996e-05
0.01963667,-0.07637496,-0.001399263
0.003916791,-0.01786899,-0.01650938
0.01847093,0.02336077,-0.01262667
0.01044296,0.01546365,0.008427456
-0.005852496,0.03643256,0.01797653
-0.01961831,-0.01006367,-0.01413444
-0.004141768,-0.04610983,0.009109283000000001
0.04221505,-0.01985849,0.01441848
0.0018274029999999998,-0.01654615,-0.03533303
0.002105933,0.03082792,0.00240303
0.01549624,0.008044064,0.03784334
-0.02391261,0.0201018,-0.01978188
-0.001797588,0.009644303,-0.005196318
0.01171867,-0.006989542,0.002185461
-0.01171633,-0.02231103,-0.01494886
0.01560743,-0.03151296,0.010269200000000001
0.0437587,-0.01288554,-0.01093475
0.01532418,-0.05695091,-0.001176864
0.008708172,-0.01919712,-0.01220368
-0.009679729,0.02341539,-0.02614094
0.0071446159999999995,0.03305244,-0.02249578
0.02074793,0.004483256,-0.01152864
0.02056385,-0.03996378,-0.001676701
-0.01614044,-0.07938543,-0.02460665
0.01090708,-0.07235821,0.0018396789999999999
0.03968423,-0.02185185,0.0240915
0.003078173,-0.02390541,0.007292826999999999
0.01485218,-0.000651788,0.02096693
0.03495325,-0.003642735,0.05217487
0.03956158,0.04424512,0.02778253
0.008744585,-0.04762571,0.03346666
0.001197845,-0.04173179,0.02232664
-0.02483171,0.03066185,-0.007947691
-0.008369269,0.04220604,-0.005592775
0.002340548,-0.04060287,0.01839064
0.003995579,-0.05897625,0.004429944
-0.02792208,-0.1473475,0.02285859
-0.04479829,-0.04386277,-0.01714843
-0.007249838000000001,-0.0005940283,0.00497913
0.01501204,0.04608324,0.008219318
-0.005318019,-0.02093448,0.0008565837
-0.04269484,-0.04418875,-0.0018391120000000002
-0.01418645,-0.006275136,0.01324812
-0.02776421,0.02362887,0.02573615
-0.03239704,0.02516878,0.03016805
-0.10523510000000001,-0.04372654,-0.01592522
-0.05878122,0.027049700000000003,0.0015832
-0.04043783,-0.08758274,0.0069156190000000005
-0.02611486,-0.020331799999999997,0.01134627
-0.06775738,-0.009739201,-0.01353622
-0.003004067,0.02972193,0.02807319
-0.04182886,0.003766158,0.02571911
-0.05345756,-0.07325366,0.05225429
-0.03396406,-0.12224389999999999,0.04868549
-0.10798599999999998,-0.2169268,0.07713841
-0.14868420000000002,-0.1511492,0.08908109
-0.128487,-0.1481075,0.1012086
-0.06596698,-0.16188270000000002,0.11174849999999999
-0.1028198,0.06717812,0.10224960000000001
-0.1532194,0.24293910000000002,0.1248931
-0.1197336,0.21885229999999997,0.1363129
-0.1391706,-0.01407766,0.13914749999999998
-0.1320831,-0.26241040000000004,0.1372182
0.06166396,-0.4620896,0.03273177
0.1599386,-0.4937287,-0.02937427
0.21956579999999998,-0.3541031,-0.07558616
0.18516849999999999,0.07155460000000001,-0.04056408
0.04423857,0.2899583,0.02360996
0.01137838,0.2760021,0.07532068
0.002928218,0.09719505,0.1004585
0.1209303,0.0004716292,0.07179082
-0.03301479,-0.12721849999999998,0.01750297
0.02476277,-0.05770534,-0.04523265
0.02653421,0.10431649999999999,-0.1329585
-0.09146737,0.09570317,-0.06775709
0.01239233,0.1008923,-0.06490095
0.03344886,0.1696612,-0.09946405
-0.02474481,0.16935160000000002,-0.04706505
0.0122117,0.1292773,-0.01191562
0.06594728,0.04893471,-0.04851614
0.05645214,0.02296925,-0.08350695
0.044367699999999996,0.06697775,-0.12330630000000001
0.13187839999999998,-0.01092839,-0.07402495
0.122173,-0.07628383,-0.06024852
0.09142221,-0.06535862,-0.06450497
0.09244113,-0.07678308,-0.04091067
0.07070848,-0.04383309999999999,-0.054948500000000004
0.09576868,-0.08271725,-0.05493632
0.08548695,-0.07702124,-0.04028358
0.07454063,-0.19060510000000003,-0.03778586
0.01600717,-0.09178044,-0.0416384
0.02473999,-0.02125463,-0.02748492
-0.05008030000000001,-0.07564665,-0.06502190000000001
-0.003587823,-0.09994546,-0.04513778
-0.01942072,-0.166607,-0.009951706999999999
0.02922679,-0.2380089,-0.09275688
0.07904132,-0.2016154,-0.1208896
0.04855162,-0.09742113,-0.10664489999999999
0.135036,0.06545869,0.002293464
-0.00549362,0.1899464,0.0621279
-0.01174721,0.1463095,0.06781462
-0.02447664,0.02104753,0.08981153
0.0244065,-0.02024395,0.08999922
0.0008529089,0.00801447,0.05816139
-0.03165697,0.07211525,0.03258568
-0.04902898,0.09516613,0.02513866
-0.03004143,0.13167579999999998,0.122156
-0.06897619999999999,0.05696675,0.05703
-0.09226982,0.05834563,-0.04220966
-0.09938945,0.05059458,-0.00037030879999999997
-0.06404461,0.007401599,-0.01662083
-0.01753139,-0.01281028,-0.02842914
0.02912845,-0.1057491,-0.002048388
-0.06882057,-0.14344289999999998,0.02196027
-0.06305651,-0.17496520000000002,-0.01949383
-0.06936578,-0.09396826,-0.03534748
-0.06058334,-0.08689306,-0.02155776
-0.02338356,-0.03489526,-0.03382339
0.02311248,-0.037605900000000005,0.005517014000000001
-0.03793667,-0.02637466,-0.0002290169
-0.051254499999999995,-0.03194663,-0.03906089
-0.02726088,-0.02317425,-0.03314466
-0.01482543,-0.1480211,0.03286072
0.02601412,-0.08296651,0.01965803
0.08981974,0.01974973,-0.002143327
0.08395,0.132708,-0.01362567
0.01386351,0.08637479,-0.04213577
-0.02500119,-0.1763593,-0.05722014
0.005589785,-0.1644125,-0.0327275
0.07028327,-0.11770919999999999,0.01710477
0.0521115,0.008972928,0.01636896
0.06129283,-0.06111952,0.0241831
0.1305616,0.0027669590000000003,0.04030882
0.09842983,-0.02961203,-0.01860734
-0.01377734,0.00640545,-0.06116781
-0.005803401,0.004194835,-0.061089199999999996
-0.007342546,0.09617449,-0.05671114
-0.002137938,0.1093962,-0.01902399
0.02782243,0.22834949999999998,0.01130883
-0.03150837,0.16037449999999998,-0.09887458
-0.09189491,-0.02081953,-0.14252620000000002
-0.0290583,-0.1344057,-0.11975670000000001
-0.04312164,-0.13129129999999997,-0.10216180000000001
0.0222947,0.04968573,-0.05912592
-0.006160538,0.05520531,-0.043114
-0.003788514,0.12898479999999998,-0.07883182
0.01483566,0.0746498,-0.02367262
0.04775021,-0.01415019,0.04249533
-0.005987755,-0.01318469,0.009633109
-0.0003110627,0.01045632,0.03112283
-0.0300425,0.10256880000000002,0.02642468
0.0075583609999999996,0.1207919,0.04916015
0.007627708,0.05296998,0.02840039
0.02678656,-0.04663207,0.03756822
0.03091667,-0.1585203,0.05765493
0.02672279,-0.09581561,-0.004478945
0.0067184309999999995,-0.05861628,-0.02036395
0.08478367,0.08037649,0.05140715
0.05481418,0.08254844,0.0470975
0.06375824,0.1022811,0.07647497
-0.005144663,0.03757994,0.03524804
0.008632210999999999,-0.04151596,0.01887508
0.03106103,-0.1266303,0.04842281
0.03799397,-0.09918958,0.03845083
0.06833976,-0.08712297,0.06924143
0.05917953,-0.07901841,0.04367448
0.06142852,-0.1198087,0.04332987
0.04189384,-0.07501774,0.01640026
0.009715202,-0.1428604,-9.625289000000001e-05
-0.06151613,-0.17515989999999998,-0.01537491
-0.04950366,-0.03934908,-0.01630057
-0.05133008,-0.004016205,0.03379059
-0.01912265,0.07042667,0.05332977
-0.04395246,0.09058999,0.03512657
-0.08112593,-0.01521823,0.009283531
-0.07097697,-0.1332676,-0.008325705
-0.04655327,-0.1309343,-0.01548599
-0.03255874,-0.1603651,-0.0221965
-0.01941944,-0.1893082,-0.02297016
-0.007698567,-0.05108791,0.00615806
0.000576267,0.05637727,0.03761044
-0.01351464,0.1488405,0.07060133
-0.0035569390000000003,0.1819603,0.08349199
-0.008069279,0.02824134,0.07621533
0.004978037,-0.008163754,0.08077131
0.01043501,-0.05310579,0.04361015
0.005468247,-0.1002436,-0.004778789
-0.01021883,-0.06447102,-0.01876305
-0.01221238,-0.0003608018,-0.009580257
-0.08520561,0.03162948,-0.06850409
-0.002688469,0.07647644,0.01014616
-0.02346239,0.05630387,0.02154188
-0.03345876,-0.07065052,0.02057069
-0.04583424,-0.06351589,-0.02750104
-0.03499599,-0.06367902,-0.04643608
-0.02543744,-0.12391089999999999,-0.06454692
-0.04065119999999999,-0.11850919999999998,-0.06849653
-0.03697694,-0.07719649,-0.09537391
-0.01694755,-0.02011574,-0.08354326
0.01636753,0.020958,-0.0386914
0.008067491,0.01112281,-0.05822361
-0.02556789,-0.07081963,-0.05733305
0.02667787,-0.02437807,-0.04246623
0.001240614,-0.08003183,-0.03635638
0.00919057,-0.03609591,-0.03406939
0.02180585,-0.04075332,-0.02579715
0.01040342,0.01887365,-0.005682665999999999
0.01350675,0.01542163,0.01202645
0.03651435,0.02326624,0.03493062
0.03995334,0.05423065,0.05322895
0.04027359,0.01350614,0.03768179
0.02789735,-0.01012911,0.003421064
0.009682986999999999,-0.007997394,0.0025654370000000003
0.02295088,0.006069075,0.02773646
0.009213199,0.02342691,-0.0006935073
-0.03216837,-0.01944268,0.00748896
-0.03245949,-0.0340913,0.01626125
0.02885129,-0.03329241,0.02278728
-0.02192335,-0.03557991,-0.01092414
-0.02404086,0.01521765,-0.03370616
0.03325869,0.04299598,0.003007588
-0.01262325,0.04274176,0.01405535
-0.0461296,-0.01488243,0.00131192
0.0008298547,-0.01993108,0.00868145
-0.02942964,-0.02863973,-0.0331908
-0.0488894,-0.06049612,-0.04474336
-0.02675512,-0.03696908,-0.01838849
-0.01720414,-0.05008525,0.015459200000000001
-0.01894483,-0.02830719,0.02462253
0.009130751999999999,-0.03348435,0.01326078
-0.01915109,-0.09515129,0.01064603
0.0041646109999999995,-0.04801714,-0.0034498009999999997
-0.00338972,-0.01889434,-0.01926168
-0.02516708,0.04569692,-0.04557538
-0.04512727,-0.06544995,-0.0007068886999999999
0.002555973,-0.010915600000000001,-0.02259891
0.01735575,-0.032814499999999996,-0.0004585884
0.02836758,-0.03398362,-0.005167913
0.02100693,-0.0253916,-0.01563705
0.0258286,-0.02064698,-0.02309092
0.01773974,-0.0018129420000000001,-0.004770477
0.008902375,0.07126435,-0.03056911
0.004522504,-0.005398821,-0.00818796
0.03127156,0.004684726,0.0050071659999999995
-0.003974817,0.009802079,-0.04514134
0.04495704,-0.02452749,-0.02062235
0.05856398,-0.02898879,0.0003670752
0.020708,-0.0007648002,-0.01940898
0.02571189,-0.03622666,-0.0028217359999999996
0.01348096,-0.01227273,0.00786371
0.01037081,-0.03336282,-0.01790532
-0.01954983,-0.06485626,-0.02661325
0.004458594000000001,-0.06357017,-0.020952900000000003
0.009960233,0.002780747,-0.004256219
-0.02136517,-0.001595058,-0.02116887
0.02005622,0.04498358,0.0197373
-0.009212017,0.05742227,0.006640824
-0.01950575,0.02572941,0.006158414
-0.02884915,0.006315669,0.007801656999999999
0.02255367,-0.06096739,0.02189455
0.001063478,-0.09529667,0.02418573
0.00724559,-0.06016571,-0.02582929
0.02207614,0.004686633,-0.01579493
0.01772818,0.06168471,0.0036025859999999996
0.03099069,0.008335181,0.02105276
0.013821,0.02503351,-0.0033973840000000003
0.01045335,-0.02195701,-0.01998716
0.0213715,-0.02251377,-0.006487723000000001
0.03334274,-0.02442542,0.001454941
-0.01891784,-0.04285376,0.008198136
-0.002218443,0.001556331,-0.0003180346
0.02098484,-0.04860125,0.05254784
0.02577416,-0.01418206,0.03528066
-0.01018318,-0.03110307,0.02083394
0.003206024,-0.04730489,0.003186456
-0.0029388009999999996,-0.02959265,0.04929518
-0.06376331,-0.02031574,0.001814729
-0.04298056,-0.045588199999999995,0.0058056819999999995
-0.006584088,-0.0430561,0.02961679
-0.00931116,-0.05254227,0.007427194
-0.05665572,-0.02037659,-0.03619321
-0.02915281,-0.0947706,0.01039494
-0.021990400000000004,-0.07410052,-0.002088994
-0.01213809,-0.05976409,0.01935447
-0.01942289,0.001334395,8.05906e-05
0.02730851,-0.001185311,0.02984516
-0.005655324000000001,-0.03488477,0.01406225
0.01872945,-0.008770535999999999,0.003057849
-0.04299242,0.002240587,-0.005249792
-0.05315217,0.0024546439999999997,-0.023896200000000003
-0.04075155,-0.005602315,-0.02337112
-0.025878199999999997,-0.01545666,-0.01192407
0.02204741,-2.9679390000000002e-05,-0.01151995
0.008456275,-0.05008605,0.001018607
-0.02555951,0.006656415,-0.02117662
-0.02612373,-0.008265654,-0.00195601
0.01220624,-0.04063178,0.033097
-0.007319933000000001,-0.04768916,0.02269866
-0.001118131,-0.07993075,-0.04215714
-0.01309484,-0.05293905,-0.01913237
-0.03509755,-0.036568300000000005,-0.05284417
0.02830713,-0.044958099999999994,-0.021804900000000002
0.003581579,-0.02756386,-0.01736639
0.01611087,-0.01567121,0.02180683
-0.009453609,-0.02217695,-0.0033201
0.007200028000000001,-0.002319023,0.0001895218
-0.002638914,-0.04516356,0.02376969
0.02309014,-0.06061715,0.01026132
0.001240258,-0.06738693,0.00017590540000000002
0.02252119,0.06064733,-0.01297219
0.0261846,-0.01059114,0.02412398
0.02100083,-0.04368871,-0.02038351
-0.03198447,-0.06336057,-0.02562102
0.0217543,0.01914412,-0.03834921
0.01223441,0.05999724,-0.036494099999999995
-0.0154094,0.01320997,-0.01500195
-0.02751086,-0.007519456999999999,0.02023769
-0.04048038,-0.0309736,0.01416863
-0.02900521,-0.06402655,0.01108894
-0.004288127,-0.06256258,0.01487959
-0.004336191,-0.06160425,0.01238215
-0.00241268,0.004128105,0.01166396
-0.0017026160000000001,0.0486022,0.02939537
-0.01429795,0.05914805,0.02751881
-0.01339028,-0.01112456,0.005218815999999999
-0.02346326,-0.03402105,-0.0048480979999999995
0.003264772,-0.0055283680000000005,-0.0029790840000000003
0.01770714,-0.04349585,-0.01698359
0.02616729,-0.03584995,0.005255528000000001
-0.08000232,-0.009763782,-0.06729725
-0.08390617,-0.03676616,-0.02522415
-0.02800052,-0.004752349,0.009094563
-0.02883807,0.007569158,-0.004894072
-0.02804551,-0.02554135,-0.01838432
0.04897485,-0.02375829,0.021443
0.023507499999999997,0.01589504,-0.03962921
-0.04548798,0.03097234,-0.01825531
0.006793208,0.04319483,0.008897281
0.01533725,0.03371057,0.01474988
0.01617371,-0.05882986,-0.01142152
0.04198568,0.01768129,-0.01872098
0.003939194,0.03809305,-0.01190981
-0.02607295,0.1238048,0.001241874
0.008641619,0.0979213,0.02119075
0.02280883,0.03914671,0.02489583
-0.0015040189999999999,-0.03641179,0.01653673
0.02044634,0.01332316,-0.01749844
-0.02540697,-0.2175605,-0.005687369
-0.02539047,0.05785601,-0.05624123
-0.01118435,0.006751008,-0.01438457
-0.04619613,0.03983344,0.00353633
0.002916578,-0.1434312,0.02736694
0.07963663,-0.15465299999999998,0.007226626999999999
0.05628365,-0.1451188,-0.02141016
0.05777747,-0.1442249,0.03793654
0.008734766,-0.03539048,0.02041747
0.02462575,-0.05417178,-0.00040643900000000003
0.02540119,-0.08446311,0.02265727
0.03257675,-0.13279349999999998,0.01363001
0.04307159,-0.14696529999999997,0.01604326
0.05739558,-0.2100159,0.003338082
0.02084514,-0.27663899999999997,-0.02249548
-0.06815067,-0.04089980000000001,0.03974748
-0.1248496,0.38034029999999996,0.1382142
-0.1383816,0.4264875,0.104593
-0.02859167,0.3671268,0.108521
-0.01502091,-0.02526443,0.08027087
0.04586806,-0.17564100000000002,-0.04518214
0.01413283,-0.1733267,-0.06674063
0.007923463,-0.10281010000000002,-0.01648962
0.01284391,-0.04470327,0.0270462
-0.043044599999999995,0.01317385,-0.0028206579999999998
-0.03229196,-0.05447334,0.03659992
0.03773072,-0.1125757,0.009208122
0.01906891,-0.1454415,-0.02303974
-0.05624655,-0.06331109,0.01874099
-0.04908333,-0.01720109,0.03239754
-0.01017379,-0.02629104,-0.01702767
-0.00285358,-0.02213597,-0.0039589329999999995
-0.03980206,0.04576313,-0.05028917
-0.02200399,-0.04586146,-0.03896405
-0.01066235,-0.0031250659999999997,-0.009664171
-0.00580304,0.02709709,-0.005437976999999999
-0.02817442,0.01220819,-0.02863612
-0.03206148,0.03488639,0.004394745
0.009392533,0.06804927,0.004994298
0.02287319,-0.0909584,0.02887198
0.0398564,-0.0897011,-0.04028295
0.036350400000000005,-0.04978906,-0.05090392
0.02715847,-0.005475646999999999,-0.04584932
0.08681052,-0.06406438,-0.02557735
0.07698118,0.07374133,-0.05014227
0.02955,-0.01403855,-0.05290775
0.0199383,0.02858374,-0.04503772
-0.007865109,0.013265,-0.037319
0.02834398,-0.02823761,-0.03113731
-0.01757108,-0.01725331,-0.03123443
0.03951286,0.03362563,-0.01914104
0.02840104,-0.02149704,0.01360691
-0.04956986,-0.05085775,0.001820442
-0.01614256,-0.05666525,0.006404593
-0.01765252,-0.07090428,-0.01351072
0.02544852,-0.06539027,-0.02429986
-0.00521116,-0.04527051,-0.04902619
-0.019353,-0.06291278,-0.01307505
0.0009565206,-0.02306723,0.0069109209999999996
-0.05601344,0.007890075,-0.02925683
0.0008650389,0.02074398,0.01645626
0.02752171,0.04312658,0.05228423
0.039167400000000005,0.05323964,0.03144176
-0.01221272,0.06024548,0.006171500000000001
-0.01530729,0.03802891,-0.01815683
0.03723911,-0.01156718,0.008970948000000001
0.01007048,-0.04091465,-0.0034272020000000003
0.07230712,-0.03654786,0.04225577
0.01750878,0.05265264,0.0037283340000000002
0.02902952,0.04478364,0.04878481
-0.01673191,0.05331393,0.01972491
-0.03091595,0.05438857,0.01137765
-0.004411689,-0.03304713,0.04643594
0.002414905,-0.03956619,0.0285925
0.01043,-0.08289559,0.02673197
0.02967124,-0.04609218,0.04393479
-0.05317099,-0.03523446,-0.01829751
-0.001133362,0.009337004,0.001192049
0.01098905,0.02700831,0.01188283
-0.0026230859999999997,0.06103081,0.00182011
0.01185865,-0.004746027,-0.006238125
-0.0177352,-0.01149349,-0.01768609
-0.02839528,-0.04526011,-0.01846918
-0.002635637,-0.02672523,-0.06936089
0.06495131,-0.03056654,-0.02578906
0.05000047,-0.06051203,-0.05802067
0.05238640000000001,-0.06400692,-0.0442594
0.05562583,-0.01533328,-0.03180542
0.02537935,0.0387686,-0.009589542
-0.03575848,0.023470400000000002,-0.05849477
0.008843596,0.04721346,-0.013434399999999999
0.007045175999999999,0.02854944,0.01061172
-0.003687541,-0.02107157,0.02503193
-0.0008594439999999999,-0.04187898,0.02937014
-0.008082145,-0.0062090140000000005,0.006470708
-0.00252189,-0.0277964,0.01129466
0.02899653,0.008377649000000001,-0.003055205
0.0038888959999999998,-0.02221201,-0.01296993
0.03971061,-0.0113845,-0.01361236
0.03630175,-0.008348735,0.01550139
0.01342525,0.02596372,-0.02696918
-0.02432928,-0.01783865,-0.01006619
-0.02447451,-0.04348554,-0.008581689
-0.03211231,-0.04020264,-0.01103626
-0.02865204,-0.07290665,0.01128263
-0.01793991,-0.03575388,0.01847701
-0.01927391,-0.0271401,0.001397761
-0.02632091,-0.05810009,0.001495373
0.009815816,-0.0344725,0.01199257
-0.01898192,-0.01216941,0.0057822590000000005
-0.0008543544,0.03337359,0.03465577
-0.009042765999999999,0.04684306,0.025241
0.0133178,-0.0198144,0.0098763
-0.01937501,-0.06023542,0.003385485
0.02171282,-0.09016496,0.01040955
0.02221231,-0.09982671,0.02919895
-0.01341458,-0.05655165,0.01318742
-0.03724221,-0.01011546,-0.02213746
-0.009836454,0.0017664570000000001,0.03267524
-0.01890267,-0.02803648,0.01825388
0.005021741,-0.02772079,0.022550999999999998
0.05504043,0.01674742,0.01112144
0.00039338910000000004,-0.02117145,0.003949594
0.01811551,0.01929394,0.03375352
0.0031391459999999998,-0.009348309,0.02186342
0.004645000000000001,-0.01674058,0.044172199999999995
-0.03818616,-0.04958102,0.03221865
0.006882961,-0.0327852,0.03663615
-0.03348786,-0.02365741,0.011012000000000001
0.03027897,0.01525158,0.03807481
0.00724081,0.00033167559999999996,0.04664368
0.0268819,-0.05580627,0.0456623
0.01469772,-0.004044815,0.0009707622
0.00519838,-0.0291007,-0.02430105
0.01673151,-0.10086510000000001,0.02969676
0.028944900000000003,-0.03134294,0.0030260390000000003
-0.01790795,-0.02992559,-0.02700331
0.000354324,-0.03280852,0.008229153000000001
0.006696771999999999,-0.001331775,0.0017604220000000002
-0.02367685,0.009343114,-0.02727929
0.01579057,0.03764903,-0.01456236
0.02778227,0.0234096,-0.0042715240000000005
-0.02761536,-0.03015918,-0.02751507
-0.02016753,0.005320855,-0.04313323
-0.004081541,-0.01784605,-0.03150573
-0.01023994,-0.002248618,-0.01508501
-0.013315299999999999,0.01262856,-0.03354853
-0.00706955,-0.03521837,-0.02986272
-0.008694841,-0.006993696,-0.04039428
0.006459426999999999,-0.04060389,-0.0070758190000000006
-0.01555116,-0.0198366,-0.01266134
0.000577956,-0.009000184,0.02346017
-0.03237031,-0.006421441,-0.02678941
0.02172588,-0.06555162,-0.004573216
0.01333673,-0.06071424,0.01742005
0.01575315,-0.01093601,-0.0073339880000000005
-0.007608933000000001,-0.03573275,0.02711297
0.001371861,0.002354764,0.01754625
0.042705900000000005,0.01031752,0.035068800000000004
0.01434927,-0.01626829,0.00800796
0.006112406999999999,-0.01676937,0.02728218
0.03986986,0.05226621,0.01829864
-0.02171582,-0.002804151,0.01620037
0.00601766,0.007296485,0.01731901
0.03153655,-0.001351864,0.01020911
-0.05872263,-0.03076768,-0.03015978
-0.01840262,-0.0343256,-0.007237881
0.01822471,-0.06181157,-0.002629653
-0.01083153,-0.02499871,-0.002568612
-0.03044064,-0.06128376,-0.01266553
-0.005468446,-0.02873426,0.02556118
-0.023278,-0.01735843,0.03495806
-0.007070892,0.002234945,0.027012400000000002
0.02793185,-0.01931488,0.03860386
0.01459753,0.07152,-0.0034232290000000003
-0.03093344,0.024337,-0.0022413710000000002
0.007340125,0.03580621,-0.01144314
-0.01529193,-0.01552681,-0.03714895
0.02710109,0.04442697,-0.03965428
0.02158639,0.008575857,-0.02637485
0.05157571,0.02534828,-0.01997436
0.01570216,-0.00636306,-0.02232727
0.00314665,0.005703388,-0.04805193
0.008700771999999999,-0.02800367,-0.02735011
0.02998609,-0.01561452,-0.009972214
0.03237138,0.030078800000000003,-0.003034124
0.05427376,-0.04758075,0.01980408
0.03496015,0.006687735,-0.01634945
0.03220212,-0.00524345,0.005151603
0.02310255,-0.05734042,0.009576064
0.01513407,-0.03726926,-0.006306224
0.03615858,0.01020573,0.02033535
-0.006277481999999999,0.0007974922,0.02235594
0.0007451214,0.02095159,0.04323194
-0.002618478,-0.03169743,0.0067947780000000004
-0.03996839,-0.07907528,0.01605411
-0.0031000890000000003,-0.04146261,-0.01456023
0.008867136999999999,-0.03093452,0.01427322
0.02323999,-0.001649158,0.004240109000000001
0.01073918,-0.005621608,0.02269545
-0.05043366,-0.03285391,-0.01149797
-0.01033188,-0.083631,0.05556148
0.0195977,-0.0401037,0.01257147
-0.03279165,-0.009131295,-0.002199692
0.02559505,0.001308695,0.01993269
0.0013049189999999999,0.02011092,-0.0032639270000000002
-0.0009334047999999999,0.02939089,0.0003330954
-0.0047360679999999995,0.03401384,-0.004372129000000001
-0.01969701,-0.01701898,-0.002384691
-0.04442238,-0.03019575,-0.04168333
-0.005862133,-0.1032856,0.005880041
-0.01634712,-0.08210872,-0.02660802
0.001931614,-0.03624776,0.0021804629999999997
-0.01840509,-0.01647246,0.0007088664
-0.003894092,-0.002565393,0.02243736
-0.051503099999999996,-0.01699387,-0.02422741
-0.05259255,-0.06800206,0.007602286999999999
-0.002151866,-0.05350465,0.003486035
0.0019168129999999999,-0.03215108,-0.01393002
-0.02948812,-0.05050578,-0.007914576
-0.02695151,0.01295344,-0.001588947
-0.006988817,0.00460501,0.01332476
-0.01375747,-0.04874308,0.02921673
0.00501596,0.004581443,0.02075069
-0.008035604,-0.03882866,-0.004075322
-0.01679304,-0.05136149,0.00498202
-0.01399988,-0.03374482,-0.00673838
-0.0027391790000000004,-0.01547641,0.002532361
0.009711554,-0.00563316,-0.000604582
0.06268172,0.0001228945,0.04289429
-0.005940304,0.01924885,0.003849294
0.0250619,-0.06976348,0.01891292
-0.0007178388,-0.05366394,0.01613012
0.01239002,-0.04669641,-0.0006927872999999999
-0.006904036,-0.07039357,-0.009676332
0.01199059,-0.06725139999999999,0.009827076
0.005846001,-0.03891025,0.02947674
-0.02156174,0.01142185,0.01376155
-0.04504101,-0.01526385,-0.0009942977000000001
-0.03975087,-0.002533929,-0.02058202
0.02491835,-0.009029885999999999,-0.01005589
-0.01780416,0.01896542,-0.039328300000000004
0.01815784,0.03219074,-0.01438972
0.02317027,0.008616729,-0.02112655
-0.01114966,0.02092289,-0.05048528
0.01892415,-0.005437366999999999,-0.03000839
-0.00883724,-0.01322287,-0.02127163
0.0026517579999999997,-0.03358458,-0.01968457
0.01768154,-0.05353144,-0.01213464
0.01836189,-0.07278573,0.01482951
0.02361012,-0.03197481,-0.00904429
-0.019772400000000002,0.02408436,-0.02368119
-0.01459547,0.001729719,-0.00144494
-0.01949395,0.028060900000000003,-0.005596604
0.02298592,0.01436548,0.01958616
0.00344118,-0.005094787,0.02315856
-0.02578511,0.008530779,-0.004673102
-0.0282782,-0.01981843,0.008903813
0.00270852,0.01668617,0.02011787
-0.0008877749,-0.02573213,0.03509329
0.02574977,-0.04023895,0.05376202
-0.00706361,-0.09976432,0.04225954
-0.008641454,-0.102122,0.01946726
-0.01106482,-0.07787062,-0.008022023
0.01362711,-0.05275038,-0.004653393
-0.02047775,-0.022495599999999998,-0.03936899
-0.04526386,-0.0163942,0.0005054511
-0.006553361999999999,0.05394297,-0.02358479
-0.02150668,-0.01292553,0.01727002
-0.04233879,-0.06016805,-0.0220047
0.05982797,-0.02584593,0.02791459
-0.02736778,-0.04558776,-0.0005128533000000001
0.02310429,-0.02245038,-0.001151246
0.0166863,0.03760688,0.0038464320000000003
0.01184429,0.04412898,0.01711233
-0.009834911,-0.008348846,-0.004456852
-0.01826203,-0.03763346,-0.01520844
0.01154121,-0.01809272,0.007171545
-0.008101835,-0.03735407,-0.003741704
-0.02397934,-0.02513975,-0.04666948
0.002398453,-0.04979353,-0.0001357126
-0.02342274,-0.05686981,-0.01698191
-0.02006134,-0.06395568,-0.03235951
-0.006310849,-0.06610067,-0.01673299
0.01305397,0.008785265,-0.007091204
0.01864332,0.04274031,-0.02428611
0.02494979,-0.005242597,0.03375994
0.06312613,0.07916474,0.01633147
0.006955472,-0.02479533,0.004264886
0.03633979,-0.05386204,0.01718438
0.03697014,0.006872117,0.03644348
0.02410367,0.04442768,-0.01149251
-0.007882878000000001,0.0002622322,0.00022524849999999998
-0.01894913,-0.08060268,-0.006502918000000001
-0.04802097,-0.1242915,0.01609029
-0.04796285,-0.07344364,0.01095302
4.619732e-05,0.01824651,0.05471741
-0.0523904,0.17502379999999998,0.05262959
-0.09886213,0.06626612,0.1010084
-0.00800145,0.08690526,0.10221469999999999
0.0478214,-0.2200589,0.001374921
0.1141596,-0.18072449999999998,-0.02601779
0.07659867,-0.02380972,0.008435686999999999
0.07262278,-0.01392948,0.01618226
0.05875687,0.07487844,-0.01528114
0.04933382,0.04967315,-0.01616904
0.06836896,-0.00350025,-0.02918362
0.0807311,-0.0115352,-0.01243483
0.09378077,0.14155620000000002,-0.01454815
0.01892204,0.09335613,-0.03127106
-0.01865,0.1365547,-0.03072543
-0.002599292,0.1626396,0.06534594
-0.04202208,0.15750920000000002,0.05708161
-0.12000090000000001,0.02160428,0.04997402
0.01690412,-0.04858913,0.006130909
0.00385914,-0.1973596,0.02699718
0.05798313,-0.27071649999999997,0.01031395
0.04960737,-0.2429297,-0.02498585
0.02332871,-0.22664890000000001,-0.01366107
0.01535265,-0.11423,0.01418631
-0.05790231,-0.09466798,-0.03228343
-0.03907853,-0.05360266,-0.04360214
0.003542789,0.03063507,0.001857873
-0.01258235,0.04227853,0.001346175
-0.05778816,-0.1073349,-0.02593668
0.0017567879999999998,-0.2417819,-0.02585808
-0.02307886,-0.3021394,-0.08105069999999999
-0.04158375,-0.3457642,-0.08314686
-0.03532552,-0.0027294309999999996,0.04121321
-0.16556220000000002,0.10279080000000002,0.05601365
-0.08244771,0.09645993,0.07026355
-0.05472971,0.1917976,0.0027208379999999997
-0.1260703,0.01818253,-0.009438548
0.01130572,0.1789456,-0.1000947
-0.09832231,0.16386979999999998,0.04321206
-0.08752717,0.06220983,0.01192315
-0.09397311,-0.0005748086,-0.08566981
0.00395501,-0.1040733,-0.05797522
-0.0331722,-0.1213837,-0.02343662
-0.03072193,-0.10347680000000001,0.03971143
-0.06869489999999999,-0.05173721,-0.004203292
-0.08225697,-0.09285517,0.0011711789999999998
-0.05401241,-0.1037565,-0.01522946
-0.01777774,-0.11280530000000001,-0.05018786
0.01200019,-0.0993377,-0.1023967
-0.059651499999999996,0.01018132,-0.1138481
-0.04816871,0.16779560000000002,0.01909171
-0.07636387,0.05430925,0.0013143679999999998
-0.03843563,-0.05566237,-0.03512077
0.0594308,-0.07971829,-0.07589042
0.03974236,-0.0716041,-0.0401657
0.04396543,0.05863206,-0.06070042
-0.06949832,0.06402545,-0.01791547
0.001218844,0.0589567,0.02767828
-0.097996,-0.06261501,0.05156022
-0.03933926,-0.11461960000000002,0.007737691999999999
0.02036247,-0.3775788,-0.04784079
0.07834712,-0.2972054,-0.06662243
0.08089817,0.06673031,-0.02806177
-0.0297474,0.14625729999999998,0.03921945
0.0005658874,0.36230100000000004,0.02606063
4.9160790000000005e-05,0.3321329,0.04907599
0.0477077,0.16643529999999998,-0.005676724
0.0681324,0.04050989,-0.02720064
0.14558020000000002,-0.1671629,-0.01480978
0.1532052,-0.13465410000000003,-0.02076415
0.06876446,-0.06546608,-0.02031401
0.05604643,0.03666579,-0.05275857
-0.03193604,0.1213911,-0.05898664
-0.02784126,0.06610741,-0.04057483
-0.006133706,-0.02823899,-0.01331522
0.06258999,-0.1340162,0.04856461
0.06581837,-0.17208489999999999,-0.005291941
0.04345414,-0.05678497,-0.02800873
-0.06498639,0.1047058,0.02280002
-0.07271114,0.11738010000000001,0.04617921
-0.05193517,0.01456159,0.07144815
-0.07670819,-0.06620297,0.029536
-0.001023532,-0.08472677,0.01524437
0.02179293,-0.05956465,-0.04025283
0.05200871,0.05101608,0.01261377
0.06247855,0.1295726,0.0956262
0.02065782,0.01740867,0.15180539999999998
0.07801071,-0.02925086,0.12948230000000002
0.06182959999999999,-0.1029619,0.01288331
0.07104363,-0.07697168,-0.05592909
0.03238918,-0.00224255,-0.007894084
0.007283324,0.022877500000000002,0.01296606
-0.01471776,0.008493825,0.02958528
-0.04763059,-0.02842396,0.0053745830000000005
-0.02127971,0.007577337,-0.04424824
0.02853875,0.03411216,0.01442915
-0.00849953,0.04016923,-0.003638486
0.01091325,-0.01302683,0.02286265
0.02575616,-0.05188525,0.02859659
0.04463565,-0.006707515,0.04708046
0.0388445,0.0167845,0.045137699999999996
-0.01055877,-0.03704445,-0.001903971
0.008258376999999999,-0.11868510000000002,-0.01534553
0.02415582,-0.04426068,-0.05658751
0.01157736,0.01968399,-0.01570095
-0.002609821,-0.02613128,0.008906783
0.03255421,-0.04364145,-0.02252179
0.0570289,-0.09577788,0.03726112
0.05817695,-0.03421298,-0.01186826
-0.007542405,0.04826613,-0.02012987
-0.02236293,0.01621622,0.001293395
-0.02468528,0.0435655,-0.009855032
-0.02464237,0.02382995,-0.02228653
0.01281188,-0.03923304,0.0075904069999999995
0.03012776,-0.02759193,0.004182553
0.004800128,-0.01459534,-0.02022019
0.04211606,-0.003692955,-0.003643045
0.0136971,-0.03869725,-0.01365341
0.0001664632,-0.006297223,-0.008405075
-0.03526076,0.009071225,-0.01230981
0.01731199,-0.01086608,0.02411024
-0.01708392,-0.02550452,0.008609926
-0.03457849,-0.07270516,-0.02433497
-0.02534795,-0.02246456,-0.0299849
0.03304841,-0.05067296,0.002611016
0.0026558859999999997,-0.01023271,0.01522154
-0.0008751089,0.04673418,0.02140204
-0.01643887,0.03108785,-0.004173564
0.006425126999999999,-0.02923323,0.04737435
-0.009841816,-0.07054938,0.02824186
-0.003647318,-0.1200637,0.01053615
0.01142809,-0.10720510000000001,0.01355298
0.01754989,-0.0035377159999999998,-0.01564133
0.01580788,0.06772506,0.02274209
-0.02293682,0.00728818,0.04479383
-0.0210732,-0.01655859,0.02068885
0.04794586,-0.08959033,0.03565771
-0.02220185,-0.08466395,-0.03520675
-0.01816425,0.009544319,-0.01089197
-0.04441947,0.07209408,-0.03144698
-0.010523200000000002,0.08251764,-0.00262114
-0.001762401,0.04040225,0.04062337
-0.01031785,-0.03818023,0.02745687
0.00441596,-0.07874475,0.02914991
-0.021260499999999998,-0.11034780000000001,-0.01488434
0.00164701,-0.1231249,-0.01642502
0.00797189,-0.1074747,-0.002880321
-0.01179845,-0.1542736,-0.02608067
0.02771964,-0.07378063,0.04022412
-0.02514685,0.009189123,0.04047605
-0.06081483,0.112167,0.03203486
-0.09090271,0.004187301,0.02354979
-0.04910323,-0.004413944,0.0256947
-0.03144241,-0.06305242,0.00314349
-0.02856023,-0.09411086,-0.02257155
-0.03087435,-0.07513914,0.002787845
-0.01809574,-0.03669145,-0.01731284
-0.012263,-0.05364016,0.001004234
-0.001077565,0.01073171,0.005149506
-0.05364896,0.00469109,-0.03075564
0.01964436,0.01776885,0.008877361
-0.02517589,-0.01415844,-0.05310519
-0.007978734,0.01297114,-0.08639731
0.03076263,-0.02336726,-0.05143475
0.01074919,0.07641302,-0.07681753
-0.003089765,0.03988449,-0.08789265
0.03010999,-0.03738485,-0.04084276
0.089168,-0.02270426,-0.03040441
0.04300978,0.01160393,-0.06785866
0.02328211,0.06085615,-0.05509169
0.03329273,0.1064137,-0.05435228
-0.0006146207,0.07386577,-0.04165288
