Acc_x,Acc_y,Acc_z
0.03203657,0.008200429,0.004824796
0.03359223,0.04695973,0.02712448
0.0283944,-0.02111274,0.07221182
0.00021394950000000002,0.01471753,0.004741727
0.001380025,-0.004779492,0.01974543
-0.003664865,0.01897686,0.01166796
0.003808942,-0.012323200000000001,0.001148141
0.04102197,0.0005490658,0.006953203000000001
0.01935,-0.06232068,-0.01994808
0.02521314,-0.02457633,-0.02667459
0.01165454,-0.02642355,-0.01331916
0.02732704,-0.03019427,-0.01642291
0.01948118,-0.03197729,-0.01779558
0.01669812,0.0008329339,-0.01880741
0.0291603,0.01079569,0.003809062
0.004698693,-0.02657348,0.01301008
0.03682333,-0.0344861,0.02382846
0.03335078,-0.02328995,0.005340084
-0.013864700000000002,-0.003228033,-0.007864715999999999
-0.02421119,0.0474666,0.01111699
0.0075598819999999995,-0.02113276,0.04172994
0.006390626999999999,0.009272726,0.009336871
-0.001221233,0.04438026,-0.0038205409999999998
0.0045914779999999995,0.01689592,0.005670636
0.0259189,-0.03542886,0.02729322
-0.01990068,-0.01586995,-0.03178168
0.008184147,0.0017261239999999999,-0.003089587
-0.02573064,-0.06086227,-0.01629723
-0.009908100999999999,-0.07530218,-0.003799066
-0.01609437,-0.03109306,-0.01694518
-0.0195088,-0.04236059,-0.01783259
-0.04686844,0.002963956,-0.03895924
-0.03726368,0.054994299999999996,-0.01721667
-0.009777168000000001,0.006895208000000001,0.0221051
-0.01552453,-0.03885948,0.01339335
-0.02603864,-0.04998121,-0.01497772
0.004269314000000001,-0.04997771,-0.01522146
0.04810126,-0.01940364,0.0025661110000000003
-0.04666048,-0.04590418,-0.01811697
-0.04531468,-0.06227353,-0.02370423
-0.02643735,-0.03633023,-0.03954076
-0.04187189,0.02752789,-0.02260178
-0.07823183,-0.02894774,-0.02894081
-0.03322804,-0.01953883,-0.007787215
-0.02504943,0.007801305,-0.02815743
-0.004835976,-0.07037559,-0.002175096
-0.0039570790000000005,-0.06009044,0.02810802
-0.03345647,-0.05290893,-0.009586987
-0.03562225,-0.00766658,-0.0132707
-0.001543203,-0.03487637,-0.003904934
0.007548008,-0.04412095,0.0050527770000000005
0.01014258,-0.01457329,0.003444852
-0.0189871,-0.04518411,0.02208357
0.01907791,-0.008359113,0.009901313
-0.007777416999999999,0.001844352,0.01049527
-0.0251236,-0.03081843,0.0006447993
-0.026823900000000005,-0.02607778,-0.02859112
-0.01558914,-0.02162671,-0.01293014
-0.04807398,-0.05299874,-0.02602887
-0.03301557,-0.03237801,0.006267489
-0.04153943,-0.06129705,-0.004680241
0.0201679,-0.01538339,0.0349902
-0.009558961999999999,-0.05706446,0.05082953
-0.07468037,-0.02544655,0.02213475
-0.05017913,-0.0049784370000000005,0.01827915
-0.0233807,-0.007209602,0.04265442
-0.12018119999999999,-0.02623391,0.02534518
-0.04665667,0.002958074,0.014406
-0.0653735,-0.007463887,0.019589099999999998
-0.04578762,-0.02038285,0.02808015
-0.056384500000000004,0.08577211,0.02487477
-0.02138791,0.08530799,0.029408499999999997
-0.02087788,0.02925415,0.04525642
-0.0095922,-0.01033354,-0.02104465
0.04255842,0.05066292,0.05122069
0.06367519,0.07338276,0.02019955
0.04169246,0.06987609,0.04719179
0.02169866,0.07730057,0.03369777
0.032119999999999996,0.01654701,0.02035804
0.03053548,-0.1118299,0.005595448
-0.01959796,-0.13790770000000002,-0.04491492
-0.07045028,-0.08686761,-0.07523268
-0.0537053,0.02020136,-0.04705271
0.04856899,-0.03652246,-0.01634748
-0.00913603,-0.09531037,-0.006431846
0.0003755707,-0.14942650000000002,0.02035783
0.02993231,-0.08378769,0.002750054
-0.01314327,-0.0361361,-0.003222664
0.007198614,-0.04716199,-0.03700437
-0.004905359000000001,-0.1620838,-0.02151404
0.05766959,-0.1153729,-0.0121228
0.0124226,0.05390584,0.09391066
0.02369568,0.13439589999999998,0.06092558
-0.1088192,0.11430660000000001,0.04944916
-0.03728106,0.08466578,0.0331716
0.01871991,0.02615059,-0.004248982
-0.05024198,0.0653033,0.02058354
-0.01392651,0.1007778,0.0206178
-0.09388432,0.04239541,0.02920233
-0.05214948,-0.09428035,-0.004919387
-0.03668251,-0.03839789,0.009662661999999999
0.04014654,-0.03019604,0.0001517795
0.01270038,-0.05535199,0.0576783
-0.03400015,-0.13161170000000003,0.01730555
0.02748412,-0.05818271,-0.01018071
0.08828317,-0.08291768,-0.03509443
-0.003399247,-0.04163107,-0.07007587
0.01222239,0.05612951,-0.05309243
0.0007143263,0.1028971,-0.07246631
0.02244908,0.05470061,-0.009380681
0.01938125,-0.03194208,-0.0110097
0.09542811,-0.05678225,-0.04141692
0.0988683,-0.04292689,-0.04910508
0.08583500000000001,-0.04196082,-0.03845714
0.07828560000000001,-0.0149958,-0.00839336
-0.01049311,0.04275523,-0.0001437822
0.02966988,0.1161682,-0.01112014
-0.01068449,0.010421600000000001,-0.02402618
3.247522e-05,0.0111609,-0.04335824
0.04693949,0.01992475,-0.03076552
0.05407455,-0.03223562,-0.01312736
0.01636218,0.01275277,0.02432336
0.03262948,-0.02411223,0.03465305
-0.03254906,-0.003241805,0.00697599
-0.0126745,0.007371039,-0.02600871
0.005342947,-0.01322825,-0.04459724
0.013829300000000001,-0.11188239999999998,-0.02303358
0.030636200000000002,-0.11166589999999998,-0.03774664
0.03594163,0.03215915,-0.04085749
0.02200241,0.05807612,-0.03243928
0.06198055,0.03288457,-0.07828983
0.03508273,-0.03524967,-0.06879579
0.1151846,-0.0750854,-0.06042763
0.06813464,-0.06611045,-0.0609539
0.0334654,-0.002142608,-0.08302782
0.02512773,-0.01257144,-0.01543294
-0.00314928,0.03224025,0.007559635
-0.0135254,0.1004427,-0.01432995
-0.04462903,0.06517079,-0.01101563
-0.0250835,-0.03728668,0.0539197
-0.01855122,-0.02269258,0.04576807
-0.0005673682,-0.04815886,0.03862024
-0.04660187,-0.1093278,-0.01205826
0.002122522,-0.006609156999999999,-0.01132207
-0.008280835,0.05632912,0.03462228
0.004831925,0.06308086,0.03566377
-0.05354271,0.03326271,0.06005169
-0.02124497,-0.007836342,0.05407805
-0.003892176,-0.03761605,0.06051038
-0.03241324,-0.04668283,0.01710416
-0.02683049,-0.09523374,0.01907879
0.001723022,-0.04705968,0.03834577
-0.0006568301,-0.01119987,0.02618253
-0.02594824,0.003794869,0.03745165
-0.02821303,-0.004843752,0.061520000000000005
0.013607,-0.02033187,0.03141505
0.01902653,-0.03640948,0.01956106
-0.02600847,-0.05994119,0.0059678840000000006
-0.05106375,-0.04380397,-0.0019461720000000001
-0.02477675,-0.0739837,0.0037821609999999996
0.00021258220000000002,-0.008433046999999999,-0.003232019
0.005538898,-0.02395791,-0.006234018000000001
0.01523569,-0.02173367,0.009124825999999999
-0.003220563,-0.01070917,-0.0244144
-0.03531931,-0.02924594,-0.02227758
0.00021469310000000002,-0.06882853,-0.01885102
-0.04579159,-0.08652819999999999,-0.01187221
0.02609752,-0.0681977,-0.0057540130000000005
0.008189425,-0.03126533,-0.01822544
0.0494166,0.005939731,-0.01553258
0.01939937,0.02107996,-0.004956067
-0.02251601,0.007269516,-0.01801313
-0.00545784,-0.01061737,0.02429155
-0.02184347,0.01007967,-0.01235039
0.01792819,0.01022555,-0.04407308
0.03031459,-0.02213387,-0.0077100680000000005
0.02567473,0.01747055,-0.01942101
0.01605863,0.04918618,-0.0007784455000000001
0.03309595,0.04952431,0.01809462
-0.00472911,0.009868763000000001,0.001683895
0.019803900000000003,0.024814,-0.02603772
0.02690319,-0.02716778,-0.01162434
0.03688591,-0.07682735,0.01973378
0.01627563,-0.04942996,0.005492520999999999
0.01242741,-0.02501271,0.01644809
0.01249403,-0.03470972,0.02214294
-0.01070596,-0.0175032,-0.02959828
0.004906352,0.05760799,-0.02852971
0.01537403,0.06558326,-0.008123084000000001
0.02822166,-5.533826e-05,0.02572725
0.01132952,-0.003538843,0.01576238
0.06864449,-0.0410515,0.02162034
0.03332604,-0.0464911,0.01669656
0.0175227,-0.08555876,-0.02131371
0.05298399,-0.008098247,0.02366183
-0.04012547,-0.04679714,-0.014331899999999998
-0.0027730429999999998,-0.06957121,0.01217709
-0.01083955,-0.01328374,-0.004717548
-0.0005428856,0.007348459,-0.01534736
0.04016039,0.0178233,0.01498572
0.07251511,0.0003689695,0.0117863
-0.01079584,0.020806799999999997,-0.0007874930999999999
0.009486483,0.04331876,0.005986821999999999
0.01900974,-0.0023527929999999997,0.05160375
0.04018627,-0.03372552,0.02810011
0.0006496388,-0.04150455,-0.0035506229999999997
0.04556781,0.02139424,0.02309859
0.04807098,-0.02269967,0.03910891
0.01333013,0.0017159179999999999,0.02691713
-0.01246445,-0.030307499999999998,0.02002709
0.007519766,-0.03378859,0.03123208
-0.01284316,-0.01490085,-0.02694676
0.02114295,-0.02894097,0.01011745
-0.001179388,0.0003720485,-0.01781429
-0.02183532,-0.02280953,-0.008701358000000001
-0.02719189,-0.05126879,0.01290653
-0.01448062,-0.039063,0.004062823
0.006229934,0.003341717,0.01188134
-0.01440622,-0.03304097,0.007749436
-0.009627659,-0.0007252693,0.005212808
0.0111195,-0.02887355,0.04171574
0.0113252,-0.02591532,0.003638042
-0.05312443,-0.06028117,0.01434895
-0.02189234,-0.01670559,-0.01686208
-0.04161877,-0.04904784,-0.04250272
-0.01630788,-0.05276509,-0.004089685
-0.00011208370000000001,-0.03687825,-0.02793901
-0.05178527,-0.0123098,-0.04318054
-0.03254067,0.006167139,-0.02015495
-0.009915245,0.06627283,-0.01822393
-0.01809881,-0.029704900000000003,-0.006667005
-0.006705204,0.01198714,0.002057941
0.004201793,0.06746542,0.01180673
0.04784866,0.057894299999999996,0.0425228
0.005052675,0.0014078729999999998,0.02374415
-0.03171981,-0.03446908,-0.008265198
-0.02704121,-0.09410559,-0.0216915
-0.007452156999999999,-0.06770647,0.004552646
0.006127261,0.00642645,0.0001812051
-0.02806918,-0.08503047,0.01450995
-0.04265527,-0.05535965,0.0034499170000000003
-0.01596488,-0.01045097,-0.01882917
0.0071358509999999995,-0.06664157,0.02940705
0.0123153,-0.02530136,0.02573495
-0.01590764,-0.03194793,-0.01427074
0.02505605,0.02669116,0.007913429
-0.03881908,-0.02969379,-0.0010156219999999999
-0.01986419,-0.05423074,-0.01358221
0.02265671,-0.08075552,0.04543222
-0.02517779,-0.04415029,-0.0016073379999999998
-0.01727509,-0.04493408,-0.01129051
-0.01344164,0.009045526,0.007194163000000001
-0.003878131,0.02942298,-0.009951782
-0.01382012,-0.01142078,0.01283617
-0.02218503,-0.002300892,0.01278138
-0.006395556,-0.01977476,-0.040637900000000005
0.02783264,0.02895372,-0.03633023
0.0438498,-0.0311402,-0.01791297
-0.00204457,-0.01860634,-0.04008335
0.06250950000000001,0.02228184,-0.01788375
-0.0390044,-0.01935567,-0.08175343
0.01680683,0.006069668,-0.0176134
-0.001805577,-0.01529044,-0.008394691999999999
0.01623274,-0.05479439,0.03469746
-0.01185521,-0.02716243,-0.005272885
0.03684418,-0.04294688,0.03236198
0.04365644,-0.03506392,0.04324071
0.008173693000000001,0.005660188000000001,0.04199496
0.03677137,0.008698808,0.05952746
0.02708434,0.03864636,0.02546944
0.0036358759999999997,0.02184398,0.0238933
-0.03984799,-0.06866924,-0.000778717
-0.02723722,-0.09575929,-0.0011809330000000001
-0.04360345,-0.06247961,-0.02537176
-0.01392094,-0.06061319999999999,-0.01351262
-0.01879331,-0.04126599,-0.002429185
-0.01944515,0.01788191,-0.0054334909999999995
-0.004044435,-0.0027931109999999996,0.01183912
0.00225121,-0.005734016,0.0122844
-0.04813872,-0.04863094,-0.02128533
-0.01365149,-0.03788701,0.02534536
-0.03612187,0.004811144,0.005265964000000001
-0.01883648,0.02406712,0.01341164
-0.04596753,-0.02378129,-0.01213768
-0.02351693,-0.09672346,0.02154008
-0.02264505,-0.05420737,0.01157206
-0.004508473,-0.04941231,0.008310841
-0.03424039,-0.0025519979999999998,-0.03183543
-0.02631785,-0.05214402,-0.01060318
-0.0207419,-0.03906211,-0.001871565
-0.02559477,-0.03698256,-0.0104163
-0.008436466,-0.0595092,-0.01597511
-0.05674977,-0.04467027,-0.05550307
0.01344598,-0.04020926,-0.008576285
0.01129773,-0.009951646,-0.01747113
-0.01040187,-0.03711569,0.003594487
0.002859864,-0.03210912,0.02188721
0.01059127,0.00505615,0.01119303
0.007943005999999999,0.01225745,-0.0002213016
0.02702415,0.02865491,0.006530055
0.002423269,0.007322343,-0.0028047320000000003
0.01677316,0.04551107,0.0010081930000000001
0.04803802,0.03968802,0.01555689
0.02688593,0.02389128,0.02156589
0.01490279,-0.003216278,0.01655265
0.02252436,-0.05297526,0.01211586
0.01427358,-0.067399,0.02128927
0.01465547,-1.220778e-05,0.0006321007
0.03416186,-0.03401062,0.0033273020000000003
0.006670776,-0.01481285,-0.008465776999999999
0.01730422,-0.0231887,-0.0009320239
0.03788989,-0.02696248,-0.01344865
-0.02343052,-0.032739599999999994,-0.02842482
0.01177931,0.001359534,-0.001765738
0.03617233,0.009957806999999999,0.01693366
0.02666279,-0.02809589,0.044139
0.04224345,5.1815059999999995e-05,0.033852099999999996
0.0320949,-0.0226019,0.059823699999999994
-0.01391674,-0.01809101,-0.0017305439999999999
-0.01041068,0.0061106,0.001166434
0.04632748,0.01587979,0.0089424
0.03688741,0.01853457,-0.02543586
0.05429948,0.01123945,-0.001081895
-5.367119000000001e-05,-0.01856803,-0.03104631
0.01762972,-0.03051247,-0.04447912
-0.02380158,-0.05093211,-0.04911464
-0.003832758,-0.008138467,-0.01755724
0.04050634,-0.002105449,0.0267382
-0.02205306,-0.04553071,-0.004296057
0.003336037,-0.01839899,0.01807566
-0.04248437,-0.06829063,0.01960113
0.004938931,0.01235507,0.01098654
-0.022770699999999998,-0.0015826389999999998,-0.007595004
0.01611567,-0.001329226,0.02899195
-0.03366623,0.01876999,0.02442725
-0.02545398,-0.009099289,0.01972429
-0.04433206,-0.06507547,0.02552953
-0.02350442,-0.01948432,0.04403654
-0.009247726999999999,-0.05722151,0.03529036
-0.03012014,-0.1064001,0.01529021
-0.003478238,-0.08148517,0.01288834
-0.01360212,-0.03426426,-0.002857329
-0.03030406,-0.04707226,0.01730523
-0.008081385,0.02323416,-0.001140893
0.01284486,0.02266293,0.02103017
-0.01077306,-0.01572475,0.01744844
0.005293561,-0.0310555,0.01483367
0.008060897,-0.0006940681,-0.02447852
-0.0103149,0.01944919,-0.008332745
0.008074358,-0.04179679,0.03348221
-0.01422617,0.004556386,-0.03571852
-0.045260699999999994,-0.046593800000000005,0.01080487
-0.01184809,0.01852362,-0.01661856
-0.01744014,0.0368591,-0.04222108
-0.02092205,-0.05286759,-0.01106943
-0.01197444,-0.00785144,-0.02402122
-0.0031375440000000004,-0.05277737,-0.02670604
0.01101136,-0.04694353,-0.0167587
0.01201744,-0.009812962,-0.02634642
0.0026327990000000003,-0.03912557,-0.02664655
-0.01369243,-0.03828897,0.0009029091000000001
-0.02115005,-0.01083386,-0.02606304
-0.02173296,0.03083079,-0.01987981
0.001952155,-0.01819111,-0.00480832
0.02602959,0.02519324,-0.002510402
0.01392955,0.08057573,-0.03633755
0.004266162,-0.03018786,0.01717994
0.01728901,-0.01777319,0.02077401
0.0007552078,-0.01872959,0.01209713
-0.002374238,-0.06537165,0.03753918
0.02365247,0.0004110392,0.01172138
-0.0007728514999999999,-0.06590877,0.01620784
-0.00341537,-0.03294648,0.002348207
0.02505862,-0.03759012,0.01288093
-0.04882,-0.01557489,0.01461168
0.03870047,-0.05091604,0.07073689
-0.008750596,-0.05185362,0.03701625
0.02749629,0.0035516690000000004,0.02529931
0.046230900000000005,0.05314529,0.06869677
-0.01745396,0.09739333,0.005058257
0.02536225,0.0508155,0.05916130000000001
-0.001355678,0.02586858,0.02150927
0.06695213,0.07398439999999999,0.02916527
0.0033928170000000002,0.08595610000000001,0.02388671
0.02257762,0.12133789999999998,0.05316148
0.06982641,0.1031734,0.1013313
0.07216775,-0.0969711,0.007272385
0.01185565,-0.01045875,-0.04389504
-0.01265639,0.04376211,-0.01926809
-0.05855484,0.07878233,-0.02411439
0.07327945,-0.02750116,0.03356716
0.04326026,-0.09495316,-0.01720656
0.01962049,-0.11089369999999998,-0.01272093
0.00396815,-0.02829169,-0.04461711
0.01674701,-0.08205331,-0.0015064689999999999
-0.01816171,-0.07487619999999999,0.0040420759999999995
-0.03017942,-0.06319448,0.033233099999999995
-0.0541297,-0.05458553,0.02168969
-0.04450024,-0.02142213,-0.02274257
-0.12305,-0.08691121,-0.06353491
-0.008894425,-0.143318,-0.09366454
-0.05684981,-0.2427268,-0.10798830000000001
-0.006171365,-0.1041434,-0.02851462
0.1226451,0.17141320000000002,0.1893052
0.03642842,0.14441679999999998,0.22112240000000002
-0.1252018,0.1908616,0.03142709
-0.1983262,0.1634771,-0.07102679
-0.005532764,-0.15921029999999997,0.00703691
0.0251646,-0.13487939999999998,0.01283279
-0.04311399,-0.1260952,-0.05634014
-0.03276739,-0.01940002,-0.02431002
0.0006288663,-0.07846205,0.04799223
-0.01113302,-0.1078599,0.03990833
-0.06021965,-0.0395849,-0.01566779
-0.05529419,0.05170774,-0.03419131
-0.07254055,-0.03415849,-0.05720065
-0.04617298,0.02634316,-0.002931608
-0.08241747,0.007620386999999999,-0.04256674
-0.07263669,-0.03834824,-0.04435703
-0.00885332,-0.0204172,-0.06582158
0.004320921,-0.002218593,-0.05984046
0.007240544,-0.005252636,-0.04511946
-0.05448659,0.02638078,-0.06148229
-0.05866512,-0.02571393,-0.05915301
-0.01851485,-0.09190178,-0.04314427
0.0615356,-0.08566656,-0.05288523
0.01892668,0.03949511,-0.01818397
-0.02296011,0.03134441,-0.04129099
0.0250271,0.08444721,0.009686390999999999
0.01415245,-0.05270585,0.02540707
-0.01705745,-0.07460995,-0.02102606
0.03102266,-0.01248281,0.004242147
0.030617200000000004,-0.001056535,-0.01262183
-0.04639598,-0.01744437,-0.006218996
0.01994449,0.02042111,0.0173335
0.005461873000000001,-0.02016023,0.01319552
0.01147079,-0.0031558009999999997,0.01335475
0.001469804,0.02430326,0.01912386
0.03080014,0.05390431,0.0003561322
0.03490814,-0.05727614,0.01022778
0.023100700000000002,-0.01082371,0.007431374
0.08669248,-0.04686195,0.01666571
0.03719272,-0.11287570000000001,-0.01291628
0.0735904,-0.04471532,-0.0035261790000000004
0.0155453,-0.04667775,-0.004795739
-0.00372113,-0.03662325,-0.013475399999999998
0.008064466999999999,-0.01708933,0.02873742
-0.004976986,-0.03858321,-0.01959396
-0.02163402,-0.05448637,-0.03240592
0.00803416,0.008949008,-0.05138227
0.1051492,0.06013969,0.009110752
0.07021211,0.08338849,0.01242955
0.07372443,0.1272855,0.01121417
0.00241816,0.1156152,0.01071667
0.03067722,0.04185366,-0.006284925
0.08346772,0.03553024,0.01228878
0.04844341,-0.0049613420000000005,0.01985256
0.03189165,-0.04686827,-0.002227385
0.05808874,0.06940441,0.002585029
0.05917442,0.03660263,0.01848114
0.01836927,-0.0156804,-0.0001739189
0.07199503,-0.0111304,-0.01100273
0.03615458,-0.05724211,-0.0980133
0.02764135,0.04277387,-0.0645261
0.04582064,0.09138793,-0.04731477
0.01121365,0.08921123,-0.034944300000000005
-0.008419593000000001,0.06226261,-0.01468973
0.01744838,-0.0139454,-0.009058303
0.007020763,-0.04514522,0.0030795329999999997
-0.006749956,-0.07135905,-0.03017745
-0.01851478,-0.09193224,-0.0139761
-0.03151504,-0.07316273,0.005586635
0.03685259,-0.10542860000000001,0.05979497
0.03172144,-0.05162312,0.04093027
-0.032825400000000005,-0.1390371,0.02177907
-0.01101806,-0.1276836,0.02027919
-0.01364565,-0.06083041,0.01788476
-0.0327777,-0.02831671,-0.02111403
-0.01079797,-0.04380223,0.02295024
-0.06159973,-0.0556592,-0.004334098
-0.02076268,-0.03022857,0.01496727
-0.05380442,-0.06219558,0.01324487
-0.02550119,-0.01638946,0.03006289
-0.07549473,-0.05211243,0.03432639
-0.06078249,0.02205757,0.00111866
-0.06714076,0.04363776,0.01260011
-0.02327827,0.0004488435,-0.0007744371
-0.02153591,0.02542762,0.03597189
-0.02569717,0.01033075,0.01326067
-0.03614598,-0.0046388390000000005,0.01073296
-0.03852759,-0.04366088,0.0419506
0.001962569,-0.01035091,0.03048053
-0.04664486,-0.08347826,0.03927306
0.003467886,-0.09000082,0.09707905
-0.007240998,-0.05083413,0.06499238
0.03468664,-0.0029928759999999998,0.05556207
-0.02258301,0.03325256,0.02001589
-0.004463936,0.05772284,0.02345518
-0.01241577,-0.04225267,0.01520341
0.01275775,-0.05185106,0.0276409
-0.01945044,-0.04881981,-0.02314513
-0.002834557,-0.05568254,-0.03342504
0.02586539,-0.05879248,-0.008115028
0.005601793000000001,-0.04894275,-0.03566230000000001
-0.01007003,-0.0445905,-0.04381194
0.00775598,-0.01527451,-0.01409955
0.02355008,-0.06099416,0.01141326
0.04394022,-0.05227381,-0.002541835
0.05804742,0.01129035,-0.01245997
0.05823052,0.01694147,-0.02226708
0.05723509,0.02539143,-0.01027819
0.03737976,0.08420108,-0.0010262510000000002
0.04579595,0.05443607,0.02804503
0.04873779,0.0035103559999999996,0.0008393638
0.005882078000000001,0.05730627,-0.02672575
-0.003006069,0.009084385,0.01633996
-0.01626631,-0.01594143,0.01012052
-0.009372539000000001,-0.05245646,-0.01996564
0.02195489,-0.04773321,0.01327664
0.008594661,-0.05264431,0.01591887
-0.006853176999999999,-0.01387175,-0.009883283
-0.0024752470000000003,-0.0055316409999999995,-0.003378875
0.02790223,0.04432405,-0.003962284
-0.01329802,-0.02932977,0.03511545
-0.01712222,-0.052687,0.01800925
-0.02564329,0.0004521729,0.0068426680000000005
-0.03978169,-0.009115581999999999,-0.0192524
-0.01095897,-0.03991052,0.009817495
-0.02212542,-0.05525099,0.006102506
5.47138e-05,-0.03567161,0.01701183
-0.01020308,-0.05249598,-0.006831188
-0.003002765,0.005594986999999999,0.010045100000000001
-0.06240356,-0.03819702,-0.03435153
-0.03451012,-0.04129478,0.01264535
0.007092861,-0.00641004,-0.007857422
-0.01177851,-0.04960342,-0.02607472
0.001483691,0.004415804000000001,-0.01526662
-0.03601988,-0.06631154,-0.01411774
0.01582163,-0.02942577,-0.006439516
0.0037305570000000002,-0.02758097,0.0008392764
0.05344447,-0.009798971,0.02730128
-0.008665955,0.007776461,0.012015999999999999
0.01142248,0.03643866,0.01705405
-0.003688191,0.03025739,0.0034158070000000003
0.008306261,0.01957157,-0.01060045
-0.04451446,-0.0006307969000000001,-0.03334635
0.006068535999999999,-0.01369477,0.03408532
0.005725231,-0.03146992,0.004507896
-0.02421935,-0.0379331,-0.006776738
-0.02945073,-0.08438122,0.01428513
-0.01756598,-0.05392709,0.01850213
-0.006193424,-0.05905589,0.02934317
0.02829015,-0.02139562,0.02764619
-0.001588489,-0.07766911,0.01995093
-0.04711497,-0.032397,0.01005171
-0.004023794,0.04554428,0.004435149
-0.01065308,0.06190941,-0.008430217
-0.07637094,-0.01515171,-0.03235082
-0.004092939,0.001210906,-0.01161764
0.0037918059999999996,-0.05948215,-0.012043
0.02133018,-0.04668232,-0.004393915
0.03066376,-0.01799132,-0.02814291
-0.03352928,-0.03746993,-0.05346728
-0.02167537,-0.0353018,-0.04527753
-0.00776586,-0.002273195,-0.03140264
0.0034666159999999996,0.0007230685000000001,-0.0182143
-0.0192345,-0.01312234,-0.02597859
0.04513826,-0.000960283,-0.001052164
0.0394038,-0.005769675,0.006319476
-0.007915395,0.02479233,0.008807286999999999
0.01468404,-0.0056289619999999995,0.03126778
0.04510163,-0.02832177,0.03467125
0.01626839,-0.0408823,0.03665078
-0.02574418,0.0003293529,0.0153401
-0.002463965,0.01045487,-0.01431358
0.004644495,-0.04950161,0.03690479
-0.02807406,0.01448409,-0.04338227
0.0004746879,-0.03030398,0.01291572
-0.010617299999999998,-0.01980615,-0.0053060930000000004
0.03765744,0.005987089,0.008666934
-0.01127869,-0.01744589,-0.0048701000000000005
0.03291912,-0.03831093,0.02197004
0.01270095,-0.04099165,0.01116879
-0.004019593,-0.004403698,0.01511837
0.03393244,-0.02692233,0.04385119999999999
-0.0410494,-0.07780373,0.00564183
-0.01701172,-0.07084382,0.02600821
-0.024674,-0.0328536,0.01760929
-0.009037439,-0.008632192,0.008450218
-0.01557598,-0.03886735,0.004598137
-0.0037491309999999997,-0.02597731,-0.014203700000000001
-0.04323985,-0.04726892,-0.03378576
-0.007208505,-0.05055913,0.01203511
-0.002425487,-0.05466175,-0.02428028
4.5536090000000005e-05,-0.02356942,-0.01135152
-0.01468912,-0.05305836,-0.0032578190000000003
-0.01323428,-0.01030199,0.006063181
0.001568535,-0.006375675999999999,-0.008351828
-0.02362196,-0.04751138,0.01916543
-0.03543742,2.654828e-05,0.006478937
-0.01472385,-0.05727348,0.02966961
-0.01562756,0.03352368,0.004068307
0.06441288,-0.00762847,0.03844591
-0.01509053,-0.05718349,0.03004334
0.005379878,-0.001999505,0.01043066
0.04415502,-0.002928697,0.05567859
-0.006600418,0.01189158,0.03612705
0.01942148,-0.004122203,0.04250888
-0.01377831,-0.01093663,0.004938039
-0.04164276,-0.04690756,-0.02713417
-0.008872429,-0.05048735,-0.01870984
0.01233688,-0.053619900000000005,0.016052
0.02068688,-0.06119703,0.007239358
-0.04820996,-0.07950166,-0.04338232
-0.01857166,-0.03816567,-0.01266225
-0.01944953,0.008600544,-0.01070617
-0.01877495,-0.01270527,0.0028378559999999997
0.02202366,-0.02789554,0.03248994
0.02010637,-0.05364636,0.02336587
0.007850034,-0.006321325,0.005737725999999999
0.0290472,0.04248281,-0.0009661922
0.0165305,0.03564329,-0.01556979
0.00916593,0.0004638247,-0.00103198
0.02069677,-0.01526913,-0.005820978
0.04859617,-0.006135034,-0.037137800000000006
0.03851535,-0.01723137,-0.04875877
0.02244644,-0.09764941,-0.03461935
0.02070664,-0.03381944,-0.02954025
0.0342465,-0.026031099999999998,-0.0013899910000000001
0.03539454,-0.04795064,0.05345719
-0.05266719,-0.01563646,-0.02752125
0.05239316,0.01887359,0.04630807
0.02228939,0.01869357,0.04025986
-0.0211275,-0.01724397,0.03896981
-0.02080676,-0.002113238,0.05331131
0.01672214,-0.09698683,0.0442745
-0.007477798000000001,-0.06952383,0.03079434
0.004493142,-0.06982305,-0.01371943
-0.05190557,-0.02842153,0.005217107
-0.07615025,0.02908178,-0.01041458
-0.03606408,0.05052058,-0.03488158
-0.03969497,-0.0535399,-0.03957514
-0.003392713,0.009171572,-0.008002851
0.02822896,0.05541144,0.008142895
0.04615365,0.03718318,0.01736584
0.06011976,0.05578002,0.028007
-0.00038015099999999996,0.04031911,-0.02676839
-0.00182793,0.02252063,-0.006233801999999999
-0.05447105,0.04269605,-0.03005261
-0.05469041,-0.02917927,-0.00119837
-0.02283646,-0.05729877,0.01628526
0.006237403000000001,-0.03150736,0.03049028
-0.04597406,-0.06673262,0.03804303
0.01424787,0.009908408,-0.0009894164
-0.03645338,-0.1600687,-0.07999669
-0.003146378,-0.14515999999999998,-0.0685956
-0.04314728,-0.06454824,-0.01795976
-0.009134056,0.05056349,0.08390309
-0.01054757,0.15537379999999998,0.05195425
-0.06592055,0.08308426,0.05290856
-0.03596073,-0.13579879999999997,0.0817971
-0.07229614,-0.2113212,0.03033412
0.03320791,-0.29023340000000003,-0.008355044
0.05541435,-0.2282143,-0.04434852
0.03126866,-0.1883854,0.01145683
0.03802316,0.005015746,-0.003238064
0.0302904,0.1198742,0.02020401
-0.02544153,0.1861752,0.09103133
-0.02320278,0.08531952,0.09424309
0.01641449,0.03413285,0.06124526
-0.08335529,-0.10152169999999999,-0.00672476
-0.006132087,-0.07684851,-0.005751083000000001
0.01795824,-0.03384667,-0.09888574
-0.007115270999999999,0.03454414,-0.03517163
0.10466800000000001,-0.008848667,0.02297343
0.05550352,0.0052935809999999995,0.01266639
0.03409621,0.02090662,-0.01643843
0.04678509,0.05165144,0.01622269
0.05621286,0.1888993,0.0248063
-0.05484529,0.2066369,0.02220921
-0.07326160000000001,0.02707371,-0.006603314
-0.05302991,-0.01878161,-0.07140712
-0.08666579,-0.13876989999999997,-0.11416199999999999
-0.06825832,-0.2635712,-0.06190154
-0.02057774,-0.1152278,-0.038724800000000004
0.001108823,-0.05203744,-0.02729786
-0.01491866,-0.01740427,-0.004299613
-0.04438829,-0.03183378,0.01886804
-0.01190615,-0.07215754,-0.03022549
-0.01846859,-0.04055114,0.002849794
0.082971,-0.03679949,-0.01832833
0.003486134,0.002275735,-0.1120469
0.09188274,-0.074018,-0.03590166
0.08356152,-0.02833509,-0.03902581
0.01008071,0.10830260000000001,-0.01482327
-0.03705576,0.13987249999999998,-0.01755711
0.05512163,-0.01601521,-0.04203627
0.07682139,-0.38378670000000004,-0.09363829
0.1655324,-0.2184506,-0.0948289
0.11487180000000001,0.27463150000000003,0.05183935
0.01901193,0.40409809999999996,0.08124021
-0.07866208,0.3737813,0.05233436
0.0054640290000000005,0.08411208,0.06591844
0.006100923,-0.16338870000000003,-0.02851209
0.008960823,-0.21326979999999998,-0.06262533
-0.02698795,-0.1912659,-0.045089699999999996
-0.06326628,0.04364274,-0.03248779
-0.08146402,0.09160671,0.03949653
-0.10294769999999999,-0.04525683,0.03793101
0.01769245,-0.04428963,0.07726683
-0.05329894,-0.05806078,0.05883092
-0.07551337,-0.01064527,-0.0286661
-0.11776610000000001,0.01450952,0.0001342781
-0.03686822,-0.001687221,0.01752421
-0.06246195,-0.07637823,-0.01215082
-0.008010903,-0.06711031,-0.02791391
-0.01577688,-0.06327811,0.02406268
0.01562461,-0.0135381,0.03014525
-0.0245125,-0.01562533,-0.01555615
0.04004668,-0.08004079,-0.005112128
0.03910401,-0.05560705,-0.007448356999999999
0.04516514,-0.04308824,0.007637854
0.05309575,0.05514656,0.03803521
-0.04440304,0.01520882,-0.04135775
-0.01659944,-0.06211769,-0.04278668
-0.01484301,-0.08930278,-0.07485197
0.03143811,-0.09492988,-0.04444778
0.04861047,-0.06740633,-0.05937461
0.03337238,0.01771911,-0.02281118
-0.004496704,0.1785418,-0.0331629
-0.009335335,0.09844589,0.01016309
0.02143037,-0.12260339999999999,-0.02231629
0.09899713,-0.06376351,-0.006823726
0.09995377,-0.16182839999999998,0.02480945
0.08591783,-0.04168195,0.06715488
0.05009407,0.01456103,0.01095043
0.009592187,0.1490466,-0.01313815
-0.03935015,0.19656120000000002,-0.03693945
-0.08466510000000001,0.08899726,-0.04749731
0.03122755,-0.03962272,-0.06044059
0.05305094,-0.0257943,-0.07734735
0.0165363,-0.06935029,-0.08316361
-0.008174736,0.06012272,-0.04075821
0.001477414,0.05884853,0.03175416
-0.009314002,0.03513423,0.0608701
-0.05427535,-0.04617525,0.02837991
-0.00029326790000000003,-0.04402587,0.02810511
-0.009390436,-0.08701918,0.081072
-0.02574895,-0.06423341,0.03689223
-0.04754904,-0.1127886,0.05601701
0.01096261,-0.09768751,0.03590475
0.02470748,-0.2087754,0.05717206
0.07913372,-0.09105243,0.06579068
0.03049085,-0.002023607,0.08029760000000001
-0.05105934,0.09912172,0.08656527
-0.06210565,-0.06257285,0.08723149
-0.01454557,-0.1530191,0.10498039999999999
-0.02045711,-0.16449729999999999,0.04833811
-0.009046502,-0.1240999,0.01324991
0.03621526,-0.04903746,0.03810951
0.03746906,0.0612814,0.03068607
0.002730737,0.10191,0.03453822
-0.02102578,0.0998898,0.0034056629999999997
0.01418106,0.002460621,0.02050613
-0.001181743,-0.009420759,-0.02399783
0.0179825,-0.02486746,-0.03000952
0.03685883,0.006059907,-0.02714862
0.03615975,0.03599278,-0.03131845
0.0194972,0.0011140260000000002,-0.049895300000000004
0.04314712,0.04204224,-0.0062508780000000005
0.02361236,-0.004279189,-0.02670316
0.02351115,0.03075742,-0.008390033
-0.01732059,0.01125689,-0.05159585
0.02175212,0.002059271,-0.02710073
-0.0276683,-0.06455719,-0.03327206
-0.01792216,-0.1006034,-0.05544541
-0.05599134,-0.128419,-0.06501238
-0.03682848,-0.07240865,-0.0403776
0.01671222,-0.001903146,-0.02048612
-0.02033239,-0.01485832,-0.02543706
-0.02815715,-0.03382767,-0.03058038
-0.01080234,-0.01752233,-0.006329077
-0.001266897,-0.06920297,0.00367896
-0.02876947,-0.08347012,-0.001030296
-0.02708744,-0.02178749,-0.038679000000000005
0.002084734,-0.02601564,-0.002129815
0.001182623,-0.01084683,-0.01355777
-0.003515001,-0.03117438,0.00325136
0.0034055970000000002,-0.02570094,-0.00791487
-0.00677496,-0.04000523,-0.007213734
-0.02245981,0.006395015,-0.02991595
-0.002468934,0.05991535,-0.03263228
-0.04516731,0.02163639,-0.05098505
-0.02396834,0.06911422,-0.02110667
-0.0250038,0.04516674,-0.02733078
-0.004354999,-0.006222853,-0.006632231
-0.005177458,-0.06756339,0.008559586999999999
0.008405695999999999,-0.06189534,0.01333619
-0.02756768,-0.01327449,-4.350208e-05
-0.0014736170000000002,-0.01209182,0.02912577
0.01297823,-0.01681235,0.008195961
-0.001954776,-0.05869113,0.04491834
-0.03895173,-0.07720444,0.03056481
0.004964121,-0.0136326,0.04104057
0.01208348,-0.02281512,0.02523647
-0.03429544,-0.09383918,0.02400185
-0.0020655170000000002,-0.06858041,0.02253834
-0.00247662,-0.08131094,0.02297826
-0.04593883,-0.07540704,0.01377077
-0.03061689,-0.02965158,0.02672398
-0.03763102,-0.04646251,0.04217817
-0.008890925,-0.01731004,-0.02106419
0.0001077398,-0.03042586,0.01043897
0.05758217,-0.003740243,0.02301393
0.004853271,0.01919612,0.027225799999999998
0.03552088,0.01995274,0.02448868
-0.01945859,-0.03459423,-0.002804567
0.02410026,-0.01036054,0.006185186
0.03801351,0.04440697,-0.00045443699999999997
-0.004003834,0.05183781,-0.01349535
-0.008571487,-0.0032419259999999996,-0.01445276
0.01588088,0.005648055999999999,-0.004582059
0.07999343,0.02099936,-0.01225443
0.03433464,0.007889824,-0.03590265
0.04214211,0.03001698,-0.03044622
0.04240154,-0.04699371,-0.02361741
0.003592601,-0.07076825,-0.02422196
0.0041466440000000005,-0.006360630999999999,-0.01094196
-0.03250849,-0.069823,-0.005971315
0.003381193,-0.02102342,-0.001037217
0.01653935,-0.02355992,0.01810358
0.01281278,-0.00156451,0.003514096
0.00787376,0.0028536359999999997,0.0094868
-0.009735555,-0.0046575359999999994,-0.006568874000000001
-0.03823169,-0.01370366,-0.02651654
-0.05462233,0.000789137,-0.0362301
0.03313137,0.006931586,-0.01391244
-0.04115143,0.01625117,-0.001219618
4.637241e-05,0.01707675,0.04006222
-0.02635335,0.01138274,0.01525966
0.0197259,-0.022548099999999998,0.00984612
-0.009050541,-0.02591632,0.005122649
0.01025407,-0.023393900000000002,-0.0029497340000000003
0.01042174,-0.00920905,-0.02592409
-0.006869623,0.005301845,-0.033804
-0.00998902,0.02225591,-0.02506775
0.02269886,0.05610107,-0.02503454
-0.01666552,0.03302803,-0.02997658
0.0287899,0.0248573,-0.009205096999999999
-0.02859947,0.04028761,-0.04060839
0.01820002,0.04924338,-0.03429336
0.03270168,0.02678753,-0.009930411
0.004611357,0.02651054,-0.002734146
0.05200284,0.02211796,-0.005282469000000001
0.06166169999999999,0.005958878000000001,-0.015325799999999999
0.08272691,0.004419885,-0.01056568
