Acc_x,Acc_y,Acc_z
0.0070872719999999995,-0.01374884,-0.01413478
-0.04033363,-0.05654886,0.008586574
-0.0002288516,-0.01654357,0.007001759000000001
0.00017524459999999998,-0.01402127,0.01171441
0.03969228,0.004787825999999999,0.01680486
0.02737643,-0.0005662553,-0.02182718
0.02529595,-0.00602686,-0.005282069
0.03050175,-0.03385882,0.03073823
0.007461574,-0.02814823,0.01574184
-0.005528302,0.005408965,0.005750022
0.02645969,0.0007509105,0.0541481
-0.001775635,0.04958884,-0.005384748000000001
-0.01190479,-0.006556813000000001,0.03383612
-0.007939165,0.04858030000000001,-0.006460818
-0.00045153269999999995,0.04774494,0.01105296
-0.006336566,-0.02655781,0.03152601
-0.03190891,-0.02279529,-0.02097758
-0.02978539,-0.05032451,-0.007303628
-0.05320167,-0.06627846,-0.01187396
-0.02240886,-0.05886736,-0.01790293
-0.02309517,-0.06810706,0.0032365609999999998
-0.05134873,-0.06352036,-0.02759615
-0.003702602,-0.02937318,-0.00497973
-0.01804549,-0.05576441,-0.02895196
0.02296838,-0.003586911,-0.05278637
-0.03032769,-0.07510655,-0.00908785
0.01939362,-0.02340308,-0.03027198
-0.01312823,-0.04445212,-0.01698861
-0.02117954,-0.006577520999999999,-0.01784321
-0.007569548000000001,-0.003767144,-0.009593159
-0.05449484,0.01485188,-0.05813959
-0.02379683,0.003943488,0.0042596479999999996
-0.03110458,0.02173484,-0.004838999
-0.02081121,0.004381508,-0.01671806
0.008037445,-0.01330738,-0.008990902
-0.009253481,0.008447751,-0.02030248
-0.02137126,-0.02737647,-0.01678002
-0.04061738,-0.0056886969999999995,-0.04132886
-0.01185415,-0.006437898,-0.01350807
-0.03111981,-0.01357731,-0.01859379
-0.005079998,0.01255208,0.02502372
0.02360255,-0.02779271,0.04388659
-0.02820728,-0.03648196,0.01335989
0.02453723,-0.01769197,0.02488507
0.01946447,-0.05370742,0.00704902
0.04848262,-0.03170902,-0.0109322
0.04325464,-0.004465075,-0.022548099999999998
0.03394334,-0.02571407,-0.02984093
0.01203757,-0.04859117,-0.0156398
-0.006921895999999999,-0.02014438,-0.02499108
0.05185045,-0.009971023,-0.02470529
-0.01606488,-0.0183568,-0.02086463
0.01102274,-0.0059390219999999995,-0.005949886
0.01704228,-0.03529541,0.01872439
0.04282105,-0.03604374,0.03288807
0.05947863,-0.02453635,0.02860104
0.007642822,-0.001606855,0.003667195
0.06058934,0.02692517,0.02607969
-0.0108068,0.006097477,0.01093853
0.0077033990000000005,0.05514088,0.02270338
0.04016741,0.01706746,0.04955428
0.006923625,-0.02465157,0.02559529
0.017518099999999998,-0.05585790000000001,0.047635000000000004
0.01466799,-0.03561784,0.02413907
0.001891434,0.0269317,0.00296047
0.009257869,-0.03967053,0.008712913000000001
0.02433319,-0.03712685,0.00599473
-0.003467835,0.0009907894,-0.01002891
0.000970572,0.02533142,-0.0003963321
0.009074358000000001,0.04323153,0.03638896
-0.030100099999999998,0.028323400000000002,0.01572754
-0.003113328,-0.06552349,0.02999629
0.009110486999999999,-0.06659730000000001,0.02896331
-0.03672647,-0.06979798,0.006589869
-0.05429115,-0.02413455,0.005835323000000001
-0.02144327,-0.0004277611,0.0149911
-0.03853954,-0.03961479,0.01130006
-0.04800933,-0.03985188,-0.01123641
0.02643144,-0.03255069,-0.011039700000000001
0.008936573,-0.01876577,-0.01088283
0.001063603,-0.0463403,0.01081751
-0.02229774,0.04242741,-0.00967529
-0.01679647,0.03151752,-0.004501312
-0.05620732,-0.06330216,-0.009653796999999999
0.004281909,-0.01917164,-0.02861778
-0.009782355,-0.06805857,-0.003994495
0.02873453,-0.02018853,0.01298176
0.02860065,0.01744261,0.02348264
-0.007723323000000001,0.02861811,-0.02460763
0.01905175,-0.01245011,0.01586909
0.01895867,0.02486468,0.004361062
-0.01043766,0.02790475,-0.02323698
-0.01061647,0.03371452,0.01123142
0.0017704539999999999,0.04948,-0.0059986119999999995
0.008156773,-0.02866617,0.01995412
0.05030306,-0.009727282,0.01834988
0.0113827,-0.04090694,0.008880962
0.03483308,-0.06286706,0.05470067
0.005645572,-0.03964387,0.02749644
-0.0356459,0.005570903,0.01566057
-0.05862104,0.007041425,0.005127339
-0.001722075,-0.01282191,0.07065354
-0.03028306,-0.02468463,0.01116087
0.01149465,-0.06065664,0.027046299999999995
0.01596769,-0.01706674,-0.01810975
-0.0225848,0.04064534,-0.005736886
-0.004652778,0.01818208,0.008362934
-0.04156245,-0.01072386,-0.03778265
0.01555789,-0.05153175,-0.01292008
0.01846026,-0.03666769,-0.02517424
-0.008471655,-0.05314979,-0.007177146
-0.02522551,-0.004520683,-0.01699561
-0.028156900000000002,0.01422074,-0.0104501
-0.01118166,0.01247318,0.02103805
-0.002964182,0.03042409,-0.0027923920000000003
-0.02126448,-0.00317887,-0.01228415
-0.001086192,0.07117511,0.00809258
-0.02602957,0.03907272,0.01643453
-0.04836056,0.06834453,0.00354841
-0.04557229,0.01683162,0.0001422688
-0.03526685,-0.02937412,0.0322306
-0.04144543,0.02840432,0.01287737
-0.05986027,0.04640969,0.008873266999999999
-0.03282685,0.06303047,0.02947442
-0.06130788,-0.03240617,0.02258205
-0.05343718,-0.1550066,0.01332561
-0.03649247,-0.14111970000000001,-0.01341119
-0.06239768,-0.01468816,0.0011427569999999999
-0.07846341,0.09119254,0.005499844
-0.1051983,0.05402157,0.01151602
-0.04212018,0.01054211,0.02762567
-0.05734163,-0.15431589999999998,-0.04719027
-0.03102429,-0.12594439999999998,-0.10050160000000001
-0.06604969999999999,-0.09552185,-0.09522987
-0.02596317,0.02900953,-0.05735296
-0.06227767,0.08693221,-0.03441006
-0.03575247,0.04529875,0.01519843
0.01686721,0.008972533000000001,0.02835471
0.02914741,-0.1835243,0.006580888000000001
0.05463411,-0.1816108,-0.002372567
0.04978704,-0.05717174,0.01246404
0.09392404,0.009591687,0.02843132
-0.005231409,0.0048510590000000004,0.02316233
-0.00238207,-0.04248173,-0.03809716
0.06667139,-0.09823005,-0.05213946
-0.004936717,-0.07924417,-0.01083659
0.05551488,-0.01925024,0.02602877
0.06572681,-0.06106519,0.0361319
0.0681198,-0.01794618,0.03283716
0.05394294,-0.03435393,0.03731008
-0.01215076,0.06110899,0.01618072
0.05669555,0.1824429,0.030136400000000004
0.03686381,0.06879533,0.05296052
0.03298458,-0.04514658,-0.003061051
-0.003060355,-0.09972306,-0.03129722
0.03567367,-0.11346500000000001,0.0432504
0.01314435,-0.05345958,0.06061875
-0.0315185,-0.005989257,0.02058885
-0.01872777,0.04892985,0.0410514
0.03185416,0.06467964,0.05690521
0.05302827,0.03933939,0.05981262
0.02429948,-0.008390436,-0.0030115090000000003
0.01537228,0.05080722,-0.03785437
0.03399447,-0.0039410470000000005,-0.08812138
-0.02743919,0.04061724,-0.07371229
0.02655803,0.1301655,-0.03225904
0.049750300000000004,0.1080065,-0.04523443
-0.02356456,0.03022727,-0.008889979000000001
-0.01721943,-0.006677728000000001,-0.01711716
0.02309377,-0.07387621,-0.02492625
0.02280227,-0.16848329999999997,-0.008386176
0.0336013,-0.06945932,-0.00625343
0.01406851,-0.009170108,-0.01789208
0.053754199999999995,0.05397729,-0.02057243
0.0594491,0.0347034,0.005347878
0.07750757,-0.09140231,0.02510589
0.09644604,-0.17723229999999998,-0.0030076129999999997
0.1692615,-0.2359638,0.01561289
0.1786174,-0.03532046,0.05260365
0.0846859,0.22510929999999998,0.1551236
0.1023938,0.1859882,0.1949767
0.03706556,-0.03207997,0.1237015
-0.01619773,-0.2711996,0.05361463
0.02074897,-0.13425150000000002,-0.08977152
-0.05595879,-0.05833721,-0.1522775
-0.02073951,0.09342027,-0.06262797
-0.03365148,0.20110350000000002,0.00019463709999999998
-0.07693511,0.0961629,0.01881429
-0.05686384,-0.03980292,0.01185107
-0.10824310000000001,-0.1427727,-0.10548810000000002
-0.08495093,-0.19946960000000002,-0.18260099999999999
-0.05623979,-0.11557839999999998,-0.1951349
-0.03698043,0.02344676,-0.1775896
-0.08530460000000001,0.156111,-0.09831097
-0.10839249999999999,0.21345740000000002,-0.04923874
-0.08189683,0.07739973,-0.00247708
-0.02367214,-0.04452082,-0.003275718
0.0054348059999999995,-0.1277082,-0.03201311
-0.02307588,-0.09741464,-0.05942784
-0.0207764,0.04731635,-0.01614649
-0.07419795,0.1206326,-0.001905873
-0.0309212,0.1474185,0.02759593
-0.01400678,0.00847549,0.03365233
0.02813336,-0.07840338,0.0062604209999999995
-0.02201612,-0.08514281,-0.01537886
0.02082141,-0.04058753,0.001146941
0.001874212,0.001531471,-0.011510600000000001
-0.03257595,0.08479889,-0.02017189
-0.04537251,0.08407257,-0.008497681
-0.02991462,0.09269074,0.02961142
-0.01800669,0.04185792,0.03543279
-0.02595714,-0.05945109,0.05465478
-0.01429098,-0.1167644,0.04704186
-0.03511548,-0.1296764,0.02780685
0.03187092,-0.04626113,0.04262559
-0.022807400000000002,0.02612539,0.03607806
-0.01144959,0.03342433,0.04480604
-0.03091633,0.05658734,0.04185634
-0.02617208,-0.03378763,0.07233654
-0.04118693,-0.0290492,-0.01911383
-0.04579672,-0.04143567,-0.0192297
-0.01017039,-0.09840078,0.01110056
0.01893075,-0.1233805,-0.03884188
0.03712566,-0.03593668,-0.007584164
0.0514424,0.02454571,0.01241724
0.02772782,0.07490544,0.01435655
-0.02204264,0.0300399,-0.01414361
0.04789337,-0.08595830000000002,0.02380829
0.03385025,-0.06085779,-0.005559765
0.04541295,-0.03780274,0.026726099999999996
0.04324568,0.02867815,0.02612483
0.02392108,0.006877266,0.05050151
0.03366682,0.04268116,0.06251626
0.05315431,0.04398242,0.06171826
0.07508937,-0.02911676,0.05920566
0.05566851,0.03757311,0.04671741
0.0302077,0.01047566,0.04247723
0.03517525,0.05975582,0.04977835
0.02453076,0.07586697,0.01939813
0.01432286,0.03864465,0.001762226
-0.00014567469999999998,-0.02801969,0.008484174
0.01874281,-0.03400167,0.009890729000000001
0.03607129,-0.08433621,-0.02195191
0.03177716,-0.06971011,0.007644211999999999
0.04819231,-0.01426546,0.01221406
-0.02212391,-0.060275800000000004,0.01544018
0.009965429,-0.01248168,0.02338733
-0.03637471,0.01080725,0.02090701
-0.01431813,0.07086647,0.01571812
-0.01753147,-0.0062131619999999995,0.004619034
-0.01263661,-0.06121766,0.01048633
-0.04262119,-0.04351339,-0.05556279
-0.02517838,-0.09967333,-0.03275751
-0.04427455,-0.08307555,-0.05028475
-0.04221118,-0.002049267,-0.05994757
-0.05354757,-0.01046896,-0.01622909
-0.03627567,0.006134786,-0.004072831
-0.06189629,-0.06403562,-0.05075895
-0.006140644000000001,-0.05052011,-0.02122708
0.01789795,0.01121206,-0.06617431
0.02696903,0.01988383,-0.03860009
-0.01579597,-0.01353221,-0.02411065
0.01674023,0.06182539,-0.01295908
-0.04494784,-0.07860256,-8.660555e-05
0.0035043640000000003,-0.02993087,-0.01373622
0.04878163,-0.04862972,0.004920455
0.04100074,8.825579e-05,0.006576145
0.04436295,0.04180184,0.06827404
0.03677035,0.05807745,0.05644986
-0.01286277,0.002070673,0.03632552
-0.01103333,-0.01960992,0.0197017
0.004086239,-0.06510522,-0.005682530999999999
-0.0350064,-0.05099703,-0.008435149
0.002566917,-0.00209675,-0.007083951
-0.005608159000000001,-0.04744124,0.003256176
0.0003822064,0.002701554,0.02040249
-0.023416,0.04245163,0.02107122
2.110004e-05,0.001857251,0.03995401
-0.01130502,-0.05567584,0.02091512
-0.00138508,-0.10849790000000001,-0.02402484
0.02787517,-0.09320088,-0.03344556
0.0271067,0.02854404,-0.02985745
0.06424446,0.04643382,-0.01810387
-0.01235399,0.08032557,-0.04221458
-0.03660802,0.02350362,-0.03128517
-0.02119142,-0.04472667,-0.02573341
-0.01990827,-0.05052272,-0.0406917
0.05542722,-0.02456843,-0.00023384209999999998
0.06373693,0.0050904290000000005,0.01894236
0.009936648000000001,0.03198565,0.0008438956
0.04575114,0.07832317,0.04680989
0.03788744,0.03176811,0.03503526
0.03435484,-0.03819334,0.05610934
0.02265525,0.02474281,0.004880056
0.01506166,-0.02264113,0.015294299999999999
-0.01732373,-0.05754328,0.04981025
-0.01110348,-0.01412693,0.03334068
0.01245262,0.007886059,0.01941346
-0.01488296,-0.02846992,0.008176865
-0.01799304,-0.03798176,-0.001300553
0.009625044000000001,-0.01578434,0.0033730690000000002
0.02387188,-0.02430597,0.01387653
0.01984091,-0.006410915,0.03509225
0.009105938000000001,-0.008341921,0.04406638
-0.04574173,-0.02081,0.00253839
-0.007734759,-0.0058596130000000005,0.02008728
-0.01609947,-0.04383359,0.017734299999999998
-0.02859615,-0.002584437,0.01588632
-0.009504813,-0.0196458,-0.004453344000000001
-0.0161358,-0.00258306,-0.02642651
-0.006313386,-0.05744968,-0.0069067519999999995
-0.01398815,-0.06868026,-0.02559901
-0.02120047,-0.07846525,0.0005588252
-0.03134136,-0.0182993,-0.03973721
-0.01119037,-0.04913049,0.009707766
-0.05646083,-0.006184954,-0.02535148
-0.005585574,-0.04469424,0.01048741
0.004898649000000001,-0.02884251,0.006264534
0.03308846,-0.05201069,0.01433132
0.0436728,-0.03966277,0.02787232
-0.005722702,-0.04320188,0.005198523
0.004552657,-0.03805999,-0.01320205
0.001809662,0.005588839,-0.005985442
-0.003822995,0.008623139,-0.01397151
-0.05856954,-0.02379392,-0.04177804
-0.02647417,0.014452600000000001,-0.02059328
-0.01070733,0.008128945,-0.009035392
0.04839692,0.0013700160000000002,0.006041449
0.04775102,0.01726237,0.02030149
0.031622199999999996,0.009523559000000001,-0.02376665
0.0253552,-0.009604203,0.001985771
0.042281099999999995,-0.02286528,0.043680500000000004
0.04670988,-0.03264509,0.02922112
-0.02907004,-0.02751778,0.0011869180000000001
-6.928201999999999e-05,-0.009494908,-0.02096125
-0.05400909,-0.07319054,-0.01868184
-0.01918334,-0.06066779,0.0026051110000000002
0.01259528,-0.06549337,0.03856102
0.007364159,-0.05581394,0.02861423
0.01195653,0.009017155,0.01858288
-0.01727589,0.02380867,-0.0029995490000000002
0.01565063,0.07029109,-0.00496906
-0.0067078269999999995,-0.01969378,-0.01833118
0.0064246319999999996,0.01615124,-0.06632305
0.0209071,-0.03971315,-0.05284578
-0.01656933,-0.01918986,-0.06786869
-0.0016898120000000002,-0.02919713,-0.040172900000000004
-0.01533746,-0.01189516,-0.06072836
0.02577147,-0.0017479960000000001,0.002322743
0.008119196,0.01312028,-0.01941289
0.02725117,-0.04895222,0.02429176
0.02661613,-0.07979263,0.03335162
0.0302067,-0.04808998,0.03854597
0.019371799999999998,-0.01363549,0.0171511
0.04531764,0.02835643,0.0160234
-0.03866885,-0.0038423690000000004,0.02003317
0.008171704,0.011988200000000001,0.06354888
0.0001714639,-0.03159397,0.03609237
-0.03831031,0.02094781,0.01554881
-0.01084804,0.03073699,0.03978818
-0.01272585,-0.007024056999999999,0.06059537
-0.08045058,-0.05659573,0.0005634613
-0.0833919,-0.03402656,-0.03320917
0.00386431,-0.0365264,0.0220324
-0.005082041,-0.06333639,-0.001485636
-0.005726055999999999,0.01276659,-0.007527669
0.03783639,0.06459588,0.03823401
0.01824702,0.07023991,0.06859961
-0.084486,0.06644018,0.03565635
-0.03374992,0.003456622,0.02286388
-0.05523975,-0.07252675,-0.0013159789999999999
0.02591699,-0.06684658,0.01550454
0.001321064,-0.005226906,-0.01669663
0.023502000000000002,0.03289632,0.01869985
0.01814598,0.04015658,-0.002304651
-0.05694439,0.02509928,-0.03503039
-0.0651331,0.002120689,-0.04985274
-0.007034404,0.006515985,-0.02640498
-0.02309861,-0.08471965,-0.03089909
0.029218200000000003,-0.006366673000000001,0.01356064
0.01339908,0.04646086,0.006377708
0.003599164,0.1428201,0.01340766
-0.02143529,0.1075193,0.06181355
-0.01852561,0.1702969,0.02232932
0.0037590709999999997,0.07344529,0.06462598
0.005447559,0.05038368,0.04712391
0.09363504,0.08975171,0.009871732
0.144056,0.14499620000000002,-0.02414287
0.006678371999999999,0.01995073,-0.02226472
-0.05545296,0.1398211,-0.03492209
-0.01142607,0.06640308,0.01290455
0.01012089,-0.11590589999999999,-0.05810701
0.04925021,-0.195393,-0.02073153
0.12205430000000002,-0.2945922,-0.0039195309999999995
0.06255991,-0.12298800000000001,-0.04011129
0.03877459,-0.06988305,-0.01070503
0.05179859,-0.05548078,-0.01787197
0.004274953,-0.1302134,-0.006808336999999999
-0.001943605,-0.1984023,-0.009656549
-0.0005255826,-0.476246,-0.1012436
-0.00447594,-0.2820459,-0.1293991
-0.16711120000000002,-0.10249560000000002,-0.04253904
-0.21471990000000002,0.27435429999999994,0.03843575
-0.04505581,0.2399197,0.31447470000000005
-0.08684549,0.03927593,0.23429610000000003
-0.04490605,-0.1179474,0.1256688
-0.04882105,-0.09723279,-0.03820903
-0.06911774,0.06290543,-0.08316622
-0.056071300000000004,0.12247419999999999,-0.06893217
-0.03022143,0.07291171,0.02641793
0.01828752,-0.08438367,0.06028435
0.03968702,-0.13956529999999998,-0.0054607909999999996
0.0151095,-0.2007266,-0.01664667
0.02987973,-0.16908270000000003,0.01845774
0.03045235,-0.1305827,0.005104501
-0.009056844,-0.11810799999999999,-0.01312451
-0.05012527,-0.0592211,-0.008337095
0.0006086305,-0.005172795,-0.03789041
-0.02560901,0.05887869999999999,-0.02434998
-0.0792952,0.05612601,-0.05047762
-0.02206829,0.066778,-0.02699872
0.005470622,-0.0043468479999999995,-0.01560621
-0.02608781,-0.09268498,0.02503048
0.06959385,-0.02744282,4.662201e-05
0.02684652,0.02008895,-0.04479897
0.004556682,0.07582636,0.007920928
0.013824700000000002,0.1046823,0.02490369
0.0046443890000000005,0.05462471,0.02057777
0.04528249,0.04989246,0.01532052
0.04618862,-0.009200808000000001,0.03861123
0.04965491,0.03015372,0.01568174
-0.0008336697,0.05066053,-0.03283744
-0.002285789,0.06841196,-0.02834028
0.03343084,0.05408874,0.001388313
-0.04011478,-0.008055355,-0.006090172
-0.01187361,0.01518578,-0.01904757
0.02941368,-0.01117154,-0.02858859
0.004928905,-0.03944921,0.01199139
0.01956103,0.07665633,-0.0291866
-0.02724537,0.04935448,-0.005912388
-0.04272378,0.05707345,-0.02818544
-0.02886436,-0.03156101,0.009687966999999999
-0.03284253,-0.08796753,0.008809212
-0.013082,-0.1312009,-0.03520699
-0.0036280509999999998,-0.11839329999999999,-0.04226772
0.04668437,-0.07501765,-0.003219837
0.005388668,-0.0169707,-0.03917971
0.011791,0.008279614,0.02247168
0.03938907,0.03585416,0.007080126999999999
0.01730281,0.03269228,-0.01869209
0.07138015,0.01781489,-0.01459906
0.07851468,0.01011159,-0.01453175
0.05797673,-0.001257263,0.01081669
0.05286666,0.01591244,0.009464100000000001
0.01313961,0.09487327,-0.04090036
0.05370513,0.03093997,0.01317861
0.04805915,0.02692695,0.02761197
0.01988136,0.0422379,-0.001253487
0.09751776,0.02105351,0.02766722
0.07788582,-0.02293024,0.04501039
0.04799421,-0.0008392391999999999,0.01172624
-0.01541386,-0.01143999,-0.01324613
-0.04571204,-0.00249471,-0.05044778
-0.03358249,-0.006472673000000001,-0.07918064
-0.02919335,-0.09068009,-0.05215377
-0.04013402,-0.11193360000000001,-0.04887084
-0.04077521,-0.0788238,-0.03936179
-0.01997797,-0.007876701,-0.02257206
-0.03181892,-0.004449159,-0.01863986
0.006350175,0.01551572,0.02119529
0.004223314000000001,-0.02320349,0.0338255
0.001533562,-0.08257762,0.04227871
0.005356281,-0.03538673,0.01689115
-0.00020076650000000002,0.02180784,0.0008757786
0.01274469,0.04163594,0.008959441
0.01762168,0.059204599999999996,-0.01320835
0.018546,0.04793901,-0.03670402
0.01786098,0.05879573,-0.020405
-0.005014548,0.06702045,-0.04649376
0.005800206,0.03155578,-0.05784149
-0.009898096,-0.007750116,-0.05991269
0.006286759,0.02164029,-0.02925297
-0.01508613,0.01458629,-0.05792551
0.02834229,0.02697057,-0.02997834
0.007142195,0.006907399,-0.009080661
0.05018406,-0.01735483,0.01193825
0.02572279,-0.05560353,0.03116357
0.02367984,0.002458464,-0.008166709
-0.04694077,-0.005724459,-0.04000162
-0.01999254,0.006002408000000001,0.01125499
-0.009154072,0.05563549,0.01796009
-0.02567644,-0.03300539,0.006796961
-0.01600406,-0.04237913,0.03910488
-0.02064934,-0.01113466,0.004182938
-0.03321112,-0.05288771,0.01946626
-0.04100303,-0.04966661,-0.002161961
-0.00878644,-0.0347141,0.008656058000000001
-0.01582314,-0.006285306,0.0008118539
0.003685199,-0.03782468,0.0324017
-0.0238465,-0.05898074,0.008935152
0.01228944,-0.01327881,0.01808864
-0.0037920009999999997,-0.02889327,0.02449192
0.01730393,0.01990949,-0.01376938
0.02525619,0.025086,0.03296502
-0.04530896,0.006855689,-0.00835461
-0.03845038,-0.05810597,0.02355501
-0.001967038,-0.009051249,0.0018092689999999999
-0.013127400000000001,-0.009708938,0.005100886
-0.000602058,-0.01274007,0.0006553564
-0.01604325,-0.008346298,-0.01108708
-0.01082446,-0.03214732,-0.01768041
0.03417191,-0.02171725,-0.001778029
-0.02081104,0.009079061,-0.008668402
-0.03483773,-0.01658971,-0.0405174
-0.02930185,-0.08049529,-0.0261277
0.030216900000000005,-0.01812974,0.005708015
-0.0032475940000000003,0.003618032,0.0022801329999999997
-0.02752363,0.0172317,-0.0041539509999999995
-0.029866700000000003,0.01180505,-0.005302521
-0.03284658,0.03657131,0.00618092
-0.06187662,0.008431777,-0.041331900000000005
-0.03180548,0.02824913,-0.02526856
-0.00743097,0.01325628,-0.02653726
-0.008620586999999999,-0.02677906,-0.006119184000000001
-0.007844274,-0.03335289,-0.03239458
0.002241641,-0.0511288,-0.02917751
0.01417401,-0.03425572,0.0020808660000000002
-0.003391874,-0.04348416,-0.001464888
0.05590846,0.01670634,0.02846132
0.01993895,-0.004871471,0.01516878
0.02994511,-0.00585328,0.02649668
0.05041979,0.01947225,0.02954785
0.02131177,-0.01314812,0.05386291
0.008913544,-0.01357542,0.02466025
0.0364074,0.01835952,0.03628478
-0.03603609,-0.04267423,-0.02919185
-0.05971422,0.0206477,-0.04637443
-0.06769668,-0.03087131,-0.03217097
-0.05866177,-0.02088464,0.002444232
-0.01699567,-0.04006339,0.002303072
0.01544278,0.03602202,-0.005046738
-0.0279265,0.04355008,-0.006127652
0.01519797,0.06685767,0.002328306
-0.01331603,0.02481793,-0.01266304
0.0008069628,-0.02231031,-0.007114395
0.02145567,-0.04021099,-0.007792576
0.0525465,-0.06107957,0.009867197
0.04319476,-0.05101589,-0.01069836
0.04319667,0.009699525,0.007372541
0.02205141,0.03252378,0.0019209189999999999
-0.01808681,-0.02633577,0.0009070336999999999
0.03609578,-0.05172344,0.01321427
0.03634747,-0.02817777,-0.0012619439999999999
0.01485228,-0.03334589,-0.01050631
0.02991239,-0.03328451,0.037595800000000006
0.01439441,-0.04696085,0.0291853
-0.04039889,-0.04699551,0.01493562
0.02843517,-0.01779854,0.04795646
0.009459216999999999,0.02538215,-0.01855211
0.001224862,0.002952304,0.040246699999999996
-0.01887642,0.02099392,0.02387385
-0.03756478,-0.049148500000000005,-0.004076231
0.005742664000000001,-0.02855921,0.005302894
-0.01376857,-0.0068754509999999994,0.01178519
-0.04132205,-0.008122303,-0.01117056
0.015822899999999997,0.01338978,0.00108594
0.03259457,-0.01752368,0.0005972198999999999
0.03466845,-0.02546521,-0.008376014000000001
0.001556695,-0.01966804,0.01578527
0.01897171,-0.02134832,0.01181692
0.02108287,-0.01609595,0.02115235
-0.02951373,0.001761105,0.01708606
-0.04665069,0.09706026,-0.02232425
0.0351734,0.02164058,0.03049585
0.05224626,0.0313447,0.01925606
0.00297322,-0.02101313,-0.005171405
0.003638962,-0.03911394,0.005909512
-0.03314980000000001,-0.01459901,-0.01404527
-9.417591999999998e-05,-0.02893512,0.003034502
-0.02360472,-0.058792,-0.0108196
0.00196861,-0.05028469,-0.005223199
-0.01290043,-0.04288599,-0.02246626
-0.02904592,-0.05123615,-0.04150654
0.005975825,-0.0016149279999999998,-0.0020010320000000002
-0.03284676,-0.008929236,-0.05876459999999999
-0.0238312,-0.05856618,-0.03652604
0.03848081,-0.02407609,-0.009261005
0.01379694,-0.01155535,-0.02205831
0.04025358,-0.0344259,0.03207083
0.003797718,-0.037387699999999996,-0.006419446
0.03392621,-0.01315648,0.02140738
0.009136804,0.03538102,0.007946335
-0.0005585723999999999,0.06338736,-0.008637137
0.02353585,0.0075798440000000005,-0.0006607844999999999
0.06123107,-0.05817639,0.04241805
0.01995818,-0.01523588,-0.00527479
0.02535247,-0.05729401,0.006805286999999999
-0.01538244,0.005351359,-0.0338227
0.02647605,0.02493236,0.01753468
-0.0341658,0.01720158,-0.0043737229999999995
-0.02870962,-0.02557177,0.01038601
-0.01689212,-0.01589821,-0.03112225
-0.02760383,-0.03480934,0.01018106
-0.02086654,-0.0002909303,-0.02375564
-0.02409062,-0.08273722,-0.006812243000000001
-0.02186545,-0.09861028,-0.009182738000000001
-0.02153228,-0.03769607,0.02994514
-0.01769855,-0.04259853,0.05398199
-0.03349624,-0.03936753,0.0284226
-0.03775602,-0.03002746,0.02783098
-0.01439771,-0.07864085,0.008729224
-0.02666097,-0.1413089,-0.009792455
0.08201758,-0.05696268,0.04908965
0.07891899,-0.01240434,0.05691559
0.03937148,-0.01765881,0.1058934
-0.01626066,0.08623441,0.04351253
-0.009387869,0.07322378,0.03375844
-0.04609659,-0.003398195,0.01235169
-0.04529975,0.02665727,-0.03802665
-0.03723139,-0.01862674,-0.04121466
-0.02706069,0.02286805,-0.03393119
-0.04989601,0.03742311,-0.03082441
-0.06685509,0.06039264,-0.0757691
-0.01856461,0.0340655,-0.07144579
-0.03388962,0.008176552,-0.09529585
0.05247955,0.16655899999999998,-0.07245671
0.02456748,-0.05381754,-0.04691843
0.03559138,-0.0871833,-0.05242955
0.0179169,-0.01298048,-0.06435463
0.04259475,0.03696689,-0.02330656
-0.018026900000000002,0.06315269,0.01409561
-0.01310018,0.04186469,-0.01962283
-0.01159927,0.057938699999999996,-0.034987
0.01554309,0.02217595,0.01546626
-0.009977024000000001,0.1573288,-0.03561263
-0.01987838,0.1291509,0.009386690999999999
-0.02385662,0.09667322,0.04396359
0.07121079,0.05036457,0.02124945
0.07592018,-0.21317060000000002,0.04112036
0.09613417,0.05775356,-0.0163483
0.03702626,0.2678375,-0.0327663
-0.01023299,0.32376370000000004,-0.0029798840000000004
-0.01286625,0.1540895,-0.04825351
0.050361,0.00042883309999999997,-0.05391775
0.1323248,-0.1973307,-0.06728014
0.1604175,-0.11741960000000001,-0.0833424
0.07645939,0.07459874,-0.01357083
-0.008185405,0.09636176,0.08209986
-0.0031777409999999996,0.0712053,-0.02499779
-0.09293839,-0.1090615,-0.1533138
0.03076109,-0.2598152,-0.07307678
0.1374735,-0.03494179,-0.03600528
-0.01265026,0.09076799,-0.08858885
-0.08771145,0.005960044,-0.1441344
0.0987633,-0.1686721,-0.06256119
0.06460556,-0.2778932,0.02357628
-0.04978903,-0.47984679999999996,0.14874020000000002
0.01212265,-0.288315,0.1508587
-0.1643478,-0.05644284,0.08663616
-0.16538,-0.07969005,0.09635134
-0.1672639,-0.1448283,0.01803091
-0.1256797,-0.3008761,0.04196206
-0.06916928,-0.31382509999999997,0.09832536
-0.06984612,-0.2143147,0.03587807
-0.07860012,-0.0963577,0.06384519
-0.009129923,0.01977931,0.1132876
-0.03468475,0.19277550000000002,0.1256107
-0.09244026,0.12158060000000001,0.08505299
-0.05877646,0.04256237,-0.02293733
-0.1264864,-0.1872249,-0.05947497
0.0348097,0.0392529,0.006212953
-0.01376181,0.2244621,0.03630254
-0.07642746,0.1250044,0.05820458
-0.06713308,0.04739533,0.08949792
0.04652286,0.16231170000000003,-0.008830125999999999
0.02965965,0.2193366,-0.05690896
-0.02273235,0.2129444,-0.02308731
-0.004009455,0.12946939999999998,0.01050501
0.01883961,-0.03953291,0.01664981
-0.03254293,-0.22970789999999996,0.006156167
-0.07151004,-0.245383,-0.02851254
-0.03224835,-0.26024899999999995,-0.01408554
0.008306947,-0.07170774,-0.1004825
-0.01948287,0.04287057,-0.05607255
-0.005285451,0.02235042,-0.01437586
-0.0182803,-0.06671955,0.07352376
0.007509328000000001,-0.04977514,0.07809795
0.01993823,-0.07591091,0.1079165
0.0181929,0.04871035,0.02395304
-0.050643,0.04237376,-0.02420166
-0.07346179,0.06048693,-0.03354804
0.0434539,0.04047118,0.02150998
0.00961055,0.00577169,0.003725871
0.025628300000000003,-0.008618541,0.01410631
0.05505882,-0.0319454,-0.07329289
0.07760228,0.07371823,-0.06106371
0.09326997,0.1589289,-0.1085762
0.07150348,0.19066960000000002,-0.04234749
0.10877730000000001,0.162144,0.02516556
0.09631984,0.09576944,0.02617184
0.08341018,0.02838486,0.01212779
0.08929426,-0.02414821,0.0008307509
0.09629674,0.04951648,0.002107665
0.06042606,0.1003317,0.006393261
0.007022351,0.02230322,0.02644519
0.01392996,-0.06684916,-0.02396893
-0.05018025,-0.157149,-0.05237672
-0.041786500000000004,-0.1831378,-0.05318113
-0.05572552,-0.09249802,-0.07586564
-0.09138665,-0.09522835,-0.04854165
-0.07301077,0.04509311,0.009447783000000001
-0.07229376,-0.02966141,-0.0053724459999999995
-0.07623782,-0.13347820000000002,-0.01551177
-0.05543201,-0.1930432,-0.04760239
0.02536198,-0.1715846,-0.04313795
-0.05375689,-0.08195902,-0.01571645
-0.01416183,0.04597142,0.04946812
0.008355014000000001,0.1112867,0.02038936
-0.0163289,0.07804736,0.04460202
-0.03799392,0.05749182,-0.0038859959999999996
-0.03519163,0.13368139999999998,-0.05333283
-0.001058416,0.01698475,0.007743751
0.05057499,0.05698302,0.03809338
-0.01519148,-0.002388045,-0.01556438
0.016513200000000002,0.02518711,-0.01122732
0.003298592,0.007176541,-0.009881016999999999
0.003232285,0.04975305,-0.02920145
0.002948345,-0.0247411,-0.001890244
-0.01339438,-0.05879328,0.01339354
0.03499207,-0.05174268,0.02051537
-0.005445169000000001,-0.04165316,0.06433633
-0.02759064,-0.06212407,0.08632237
-0.01504869,-0.05280357,0.07474877
-0.06542475,-0.1322523,0.06852029
0.003904033,-0.1243034,0.06984778
-0.02546604,-0.1283817,0.05065779
-0.06867959,-0.06169096,0.0127505
-0.07694118,-0.03638403,0.01433772
-0.04585969,-0.03866807,0.0005118232
-0.04075143,-0.09303769,0.0052999480000000005
-0.02056749,-0.08032123,-0.006134611
-0.006055488,-0.07726783,-0.01498177
-0.01834295,-0.06986322,-0.0327375
0.02934335,0.026464099999999997,-0.06359733
-0.03763147,0.003246404,-0.04720096
-0.02102055,0.02545799,-0.06062369
0.01481889,0.06475849,-0.02251896
0.01175618,-0.0304873,0.02977544
0.02725938,0.05519523,0.028144
0.03358609,0.10772860000000001,-0.001157109
0.06419465,0.06222023,0.0034332029999999997
0.0327594,0.10074169999999999,-0.02234907
0.03355955,0.1309066,-0.02181604
0.002896165,0.1405928,-0.01823524
0.02475029,0.01869218,0.03234688
0.01487302,-0.02467342,0.001337005
0.005281005,-0.005706713,-0.05407861
0.01728011,-0.1128847,-0.002721146
0.01234466,-0.1249146,-0.008492506
-0.006035876,-0.04880161,-0.005868300999999999
-0.006628529,-0.03784059,0.00835735
0.01619627,-0.06801172,0.01152397
0.009853533000000001,-0.05491661,0.01589856
0.02806815,-0.04380339,0.01348635
-0.05410194,0.04257685,-0.01863378
-0.05010786,0.01794656,0.01846259
-0.001389364,-0.008798894,0.01099774
-0.001135405,-0.03030884,-0.0201606
-0.008988336999999999,0.0026589020000000003,-0.0208308
0.03317557,0.05283673,-0.02183519
0.01096356,0.05830088,-0.02211303
0.0008441564,-0.03716753,-0.0171785
0.01962619,-0.08473527,-0.01859658
0.03872537,-0.01818767,-0.01794073
0.03806748,0.02938578,-0.0016867689999999999
-0.03816891,0.007973433,-0.03324981
0.00108997,-0.009521960999999999,0.01195662
-0.06132369,-0.04596005,-0.05277434
0.03195831,-0.08448435,0.008899641
0.01544853,-0.09823364,-0.004099434
-0.01766153,-0.04472546,-0.03782764
-0.03636384,0.005183566,-0.03600206
-0.05457766,-0.01804298,0.008124677
0.02139679,-0.0034039779999999998,0.01430796
-0.05184051,-0.07004938,-0.02601532
-0.009713096,0.03378857,-0.0005301647
-0.01463505,0.01465158,0.07566528
-0.03621057,-0.04528155,0.05494512
-0.002420686,-0.08575641,0.03717297
0.03573911,-0.04867043,0.04044663
-0.01465401,-0.03693387,-0.004410451
0.02655129,0.04782647,0.02489818
-0.02375665,0.02206583,0.02027993
-0.01730712,0.04456837,-0.01306788
0.04880891,0.04296901,0.01469953
0.06374823,0.07412808,0.02481317
0.005744128,0.05606445,-0.01292112
-0.05169626,0.05069566,-0.02819582
0.009832127,-0.03157775,-0.01125597
0.02757841,-0.0038856859999999997,-0.002385952
0.02916295,-0.04903412,0.00966559
0.04836761,0.06215832,0.005555114
-0.0168327,0.03482622,0.013043899999999999
-0.002165384,-0.02916497,0.01620196
