Acc_x,Acc_y,Acc_z
-0.008478191,-0.04884806,0.006729209
0.007032075,-0.0365661,0.01826091
-0.04400043,-0.05100967,-0.04191395
0.006161781,-0.01472076,-0.03635697
0.03843141,-0.01748196,7.040798999999999e-06
0.01701723,-0.02231053,-0.009689721
-0.02509397,-0.04175159999999999,-0.02083951
0.0304418,-0.001936235,0.02138866
-0.002449865,-0.01076719,-0.02332418
0.002965657,-0.0841465,0.0007688578999999999
0.06554767,0.02945595,0.01158465
-0.01804671,0.003251157,-0.01910802
0.0035009159999999998,-0.08269960000000001,0.009953617
-0.006548597,-0.05033606,0.03045238
-0.05876667,-0.02290149,-0.01658999
-0.01811243,-0.04329466,0.02746944
-0.05979839,-0.0068940780000000005,-0.02854082
-0.02017362,-0.01570399,-0.003260097
0.03857181,0.01806389,-0.009564193
0.0216375,0.02636627,-0.03532794
-0.03339554,-0.033884899999999996,-0.01928756
0.01754358,-0.03456809,-0.0376758
0.02693861,-0.01612919,-0.007616168
-0.01075644,-0.05281274,-0.04469996
0.002586601,-0.028512700000000002,-0.01293755
0.01542377,-0.02178433,0.0045330529999999996
0.02016681,-0.01595683,0.005880645
0.007138032,-0.004139034000000001,-0.005681324000000001
0.005930431,-0.06392302,0.002286336
0.00835749,-0.03760745,-0.001996175
-0.001212964,-0.02729406,-0.01736108
0.006566527,0.02736762,0.01121675
-0.030032200000000002,0.01574393,0.0001582559
-0.04631788,0.00694107,0.0009867847
-0.03231651,0.03723077,-0.01031377
-0.03976869,-0.05093108,-0.01179898
-0.02112182,-0.06489724,0.03548787
-0.01892211,-0.03227668,-0.0032494520000000003
-0.01379425,-0.02411094,-0.02054203
0.009694883,-0.04742724,0.01685685
0.03616662,-0.029629000000000003,0.02985649
0.01798706,-0.05563294,0.06284842
-0.0005974621,-0.03743427,0.03894625
0.0038948579999999997,-0.0594451,0.03700025
0.01255054,-0.01480706,0.03467042
-0.003436523,-0.07055254,0.02033228
-0.02704225,-0.04534584,0.01029256
0.002815571,0.008747373000000001,-0.0026563190000000003
-0.00024331169999999998,-0.01950413,0.04083418
0.02618739,0.03111659,0.01066686
-0.04018499,-0.01614282,-0.02713215
0.009893034,0.01630465,0.00681573
-0.002883453,-0.06247968,-0.0002820493
0.02913811,-0.01343481,0.01283202
0.005705329,-0.02865472,-0.04413699
0.004269060999999999,-0.01612934,-0.0168658
0.01853186,-0.01880782,-0.005586941
0.004346885,-0.02686918,-0.00290894
0.03890037,-0.04450561,-0.002332518
0.04679247,-0.04078116,0.007938011
0.01874328,-0.03663499,0.01897031
-0.02393408,-0.06531788,-0.03103779
0.008545624,-0.06876632,0.02634865
0.05360468,0.001478804,0.01493536
0.03236832,-0.01742037,0.02715484
-0.01861904,0.01026429,0.01624427
-0.01204589,0.006014406999999999,0.004359706
-0.04719793,-0.02278133,-0.02989359
0.05533884,-0.04762713,0.05131638
-0.007377175,-0.06439385,0.01166097
-0.05299058,-0.1051286,-0.0002470836
-0.007759444,-0.06350175,0.03888482
0.0136786,-0.009775544,0.03634356
-0.02396934,-0.04515835,0.0319775
-0.021922900000000002,-0.04721534,0.01133151
0.006147282,-0.03413849,-0.01085189
-0.0054887040000000005,-0.07392403,-0.02458663
-0.01047133,-0.02497863,-0.01805694
0.03862882,0.01046354,-0.008409065
0.005128895,-0.002078976,0.01006011
0.05383831,-0.02433958,0.01280909
-0.02193328,-0.02666548,-0.04872885
0.02410086,-0.01943916,-0.03134117
0.01152787,-0.01874735,-0.01769642
-0.02452901,-0.1001454,0.005484482
0.0002172831,-0.06311116,0.02663692
0.007526412,-0.01812536,0.02416216
-0.0212066,-0.04376611,-0.01680406
0.006261725,-0.07912302,0.02615736
-0.008482011,0.02140501,-0.0037424259999999997
0.01433084,0.060215599999999994,0.03477121
-0.005802371999999999,-0.018243400000000003,0.04061142
-0.004565567,0.01170757,0.01779524
-0.03195323,-0.04944442,0.00940522
-0.02713657,-0.1024152,0.003832532
-0.01573664,-0.05685643,-0.01502047
-0.004256025,-0.0064529290000000005,-0.01020693
-0.01189347,-0.03884652,0.0028441440000000003
-0.04629799,-0.06900606,-0.01810623
-0.01429403,-0.08582319,0.01072924
-0.0047069370000000004,-0.04918948,-0.0019125729999999999
-0.009276309,-0.0172152,0.01620376
0.03587729,-0.02275362,0.03891874
-0.009337182,0.0005537374,-0.0190137
0.03471912,0.03619761,0.00017319990000000003
-0.008972138000000001,-0.02942839,0.007023756999999999
-0.01010171,-0.01366625,-0.004028094
0.01546987,0.008354088,-0.001087506
-0.06629016,-0.01693832,-0.0523923
-0.002540373,-0.02474687,-0.02014836
-0.006968591,-0.06446657,-0.0043600520000000005
-0.02516063,-0.04044514,-0.0058214
-0.05242754,-0.07099953,0.016062299999999998
-0.07756608,-0.06033331,0.01223838
-0.05056595,0.0002471646,0.03091132
-0.03320884,-0.008368924,0.01221972
-0.02860617,-0.006756909,0.01651527
0.01899115,-0.01143065,-0.01518101
0.01874392,-0.03845525,0.01008927
0.004019133,0.04342288,0.008507581
-0.01157245,0.08549282,0.02786401
0.01423422,0.09301051,0.06537464
-0.11994439999999999,-0.009342879,0.008953698000000001
-0.04667018,-0.05659897,0.02887391
-0.12514,-0.1253485,0.0219416
-0.1275656,-0.21699200000000002,0.06028642
-0.1606457,-0.2502242,0.04428252
-0.1994489,-0.2654843,0.03695145
-0.2734293,-0.2638439,-0.03345204
-0.23625700000000002,-0.4076362,-0.04184417
-0.05929275,-0.2849784,-0.083066
-0.061688599999999996,-0.1316535,-0.04637569
-0.07962768,0.0775688,-0.05291814
-0.1136683,0.1453156,0.03947191
-0.1273379,0.1615581,0.043942400000000006
-0.1378581,0.05820927,0.02234853
0.01512385,-0.08245674,0.0005004113
0.08830026,0.01334101,-0.03513739
0.1441458,0.08486503,-0.00224369
0.1726626,0.175675,0.04419511
0.06866427,0.2107311,-0.01505843
0.090366,0.1339491,0.01211859
0.06380372,0.043569300000000005,0.01001712
0.1128413,-0.1008625,0.0009724535
0.1618591,-0.15747260000000002,-0.0061604830000000005
0.1550118,-0.21413179999999998,0.005154848
0.115523,-0.12436400000000002,-0.06680064
0.1242271,-0.11719849999999998,-0.03277718
0.1163779,0.01198398,-0.0409035
0.06822948,0.0255347,0.004209753
-0.004840173,-0.03130489,0.06073057
0.01924514,0.101176,0.0032839540000000004
0.06204697,0.06986688,0.08597529
0.02433405,0.02268461,0.01421874
0.02160614,0.01777948,-0.02376374
0.06704004,-0.01600084,0.04293869
-0.004628473,0.0398561,0.01011261
0.01678022,-0.05296308,0.02136717
0.1369466,0.01533749,-0.047988800000000005
0.06737591,-0.02270555,-0.02119428
0.11239849999999998,0.09921068,0.01882964
0.11891969999999999,0.1261377,0.01073292
0.0805179,0.1200037,-0.01469933
0.05613721,-0.01837954,-0.06923661
0.13886199999999999,-0.04634713,0.02079583
0.01804531,-0.007307711999999999,-0.05408035
0.03993657,-0.1098089,-0.0311721
-0.006843678000000001,0.06586866,-0.007116659
-0.01232445,0.08363357,-0.0475799
-0.1490144,-0.0494505,-0.047325599999999995
-0.00243031,0.05681845,-0.002220787
0.17256849999999999,0.08818205,0.03584869
0.1013306,0.16702720000000001,0.06681255
0.005470904,0.3412599,0.06690748
-0.02317515,0.3160125,0.0036398520000000003
-0.01785012,-0.01266363,-0.004497204
-0.01130733,-0.12218139999999998,0.004106981
0.07331903,-0.09266686,-0.021524500000000002
0.1232111,-0.1010948,-0.02102171
0.07520309,-0.0964498,-0.02664039
-0.0010070539999999998,-0.08364258,-0.06156376
0.02819141,-0.0973186,0.001542437
0.08013957,-0.22053379999999997,-0.06157033
0.09539436,-0.2924111,0.005302846
0.03659114,-0.2466068,0.005345659
-0.02379692,-0.09187648,-0.04115105
-0.01887962,0.01220605,-0.009133713
-0.01654302,-0.09990117,0.0015836779999999998
-0.04673427,-0.10708,-0.03395864
-0.10051210000000001,-0.06225945,-0.07480323
-0.07232295,-0.01408017,-0.05676312
-0.10602719999999999,-0.1222047,-0.07340521
-0.02082175,-0.07238932,-0.04361375
-0.058353699999999994,-0.1664948,-0.02955877
-0.05960324,-0.1174646,-0.004369263
-0.09835607,-0.06668483,0.0659283
-0.08014797,-0.0345066,0.08176900000000001
-0.06141335,-0.05934449,0.09733293
-0.02480577,-0.08497474,0.06399500000000001
-0.08590733,0.03693393,-0.00762609
-0.04758563,0.1982565,-0.03113336
-0.01172359,0.13649679999999997,-0.006138915
0.02261662,-0.0864536,0.03433559
0.07131403,-0.09940591,0.06141577
0.05366277,-0.04981783,0.036804199999999995
-0.007227705,-0.07918428,0.0316951
-0.02980256,-0.1225685,-0.0434301
-0.1006305,-0.3043451,-0.08241913
-0.04934958,-0.2318593,-0.05561652
-0.045004,-0.0856937,-0.01061079
-0.05032736,0.03411094,0.05879733
-0.08674971,0.22152199999999997,-0.056072300000000005
-0.15277939999999998,0.1799287,-0.07361913
-0.09517892,0.19727679999999997,-0.07083583
-0.05068084,0.1285644,0.0008608215
-0.01184889,0.01098854,0.05599255
0.03139054,-0.03495163,0.1033935
0.04400031,-0.02796696,0.05263368
0.04981066,0.01568442,0.03259461
-0.0065196609999999995,-0.04924485,-0.003085677
0.02433911,0.008847978000000001,-0.0310851
-0.0043520270000000005,-0.06562012,-0.01095808
0.01155754,-0.09871516,-0.0064117819999999996
0.009503365,-0.046338300000000006,-0.02394852
0.02204549,-0.02151221,-0.0325216
0.03008764,0.008656373,-0.02411545
0.02971456,0.09023979,-0.0001351712
0.03388788,0.1076203,0.03549256
0.005453919000000001,0.042751300000000006,-0.006968743
0.03443988,0.01325121,0.03499113
0.02477874,-0.1181476,0.0139161
0.03142698,-0.05374258,-0.03669017
-0.04492976,-0.03349603,-0.05614796
-0.0005570692,-0.003068124,-0.01530885
0.03559738,0.03383894,0.02951708
0.02978089,-0.008070463,-0.002168994
0.0645584,0.03118093,0.01961832
0.1017528,0.01228963,0.03236048
0.03061911,0.0347561,-0.02120477
-0.02883005,0.01650371,-0.06290311
0.03633235,-0.008704392,-0.01343955
-0.005051231,-0.001442205,-0.04722581
-0.006156143,-0.03555445,-0.09493829
0.008120726,0.03170872,-0.0341217
0.04198023,-0.02527005,0.02655684
0.009479442,-0.05937638,-0.01857349
-0.02162198,-0.01943717,-0.05973855
-0.02293003,-0.002531502,-0.03473606
-0.0491292,-0.02587512,-0.008543223
0.02044108,0.01660703,0.03730562
-0.01480561,-0.08140235,0.02419352
-0.02706245,-0.07657768,-0.01128042
0.02662123,-0.07498011,0.06108349
0.006199074000000001,-0.08753879,0.03382828
-0.02043208,-0.03059098,0.04341927
-0.03083963,-0.01353816,0.001058486
-0.03375669,0.04045218,0.00853678
-0.06161192,-0.06196336,0.01591081
-0.02109327,-0.02619646,0.058596
0.02300925,0.03952109,0.02349329
-0.01230697,-0.01467563,0.03159469
-0.03699996,-0.05280988,0.04831504
0.003250452,-0.04344581,0.02839877
0.01435031,-0.02963753,0.01762111
-0.03560595,-0.0410407,-0.02687957
-0.03430445,-0.02039139,-0.007112991999999999
0.003286255,-0.009953061,0.01581278
-0.01812201,-0.05697571,0.01129835
-0.02278495,-0.00625293,-0.01557238
0.03742611,-0.01175137,0.02295204
0.05437777,0.03540444,-0.02086532
-0.01439309,0.03259435,-0.04910313
0.001113947,0.02139801,-0.04533254
0.04293255,-0.07948864,0.04581180000000001
0.01972134,-0.08668311,0.017830099999999998
0.01076633,-0.01853775,-0.03778494
0.016103100000000002,-0.03734498,-0.01448907
-0.008066102,-0.05021032,-0.005990556
-0.004963414,-0.02017077,-0.02044087
0.05199663,-0.00858999,0.04435843
0.04741946,0.04750026,0.02075748
0.007214351999999999,0.00739669,0.02896337
0.03867085,-0.004461615,-0.006263895
0.03227945,0.00992373,-6.768294e-05
0.02086058,0.03796003,0.006581888
0.008796005,0.04144143,-0.01690671
0.01819128,0.01211091,-0.024286099999999998
-0.02179931,-0.04698338,-0.02981687
0.02424674,-0.0884188,0.01307876
0.01091342,-0.005727258000000001,-0.001020534
0.006419504,-0.09637962,-0.001091231
-0.02428644,-0.04412092,-0.01350925
-0.02384422,-0.004122298,-0.00887221
-0.004631013,0.01887428,0.01239585
0.02532585,0.04052333,0.03692435
-0.05408801,-0.03165928,-0.0002842359
0.01045261,-0.05067011,0.003114058
-0.01818805,-0.04371658,-0.01286228
-0.03636955,-0.003896378,-0.03299946
-0.04060981,-0.02306807,0.001359161
-0.007583068,0.005566871,0.0008896517
-0.04446709,-0.06577519,-0.02570941
-0.002035835,-0.07913324,-0.009323098
0.02887452,-0.02420143,0.009106488000000001
0.01255752,-0.05181687,0.01352726
-0.0306307,0.002555076,0.001339492
-0.02338387,-0.0024231079999999998,0.02731736
-0.05132851,-0.02796341,-0.04049871
-0.02658175,0.01071659,-0.05477742
0.0038340859999999996,0.004339863,-0.03510248
-0.005906021,-0.03248,-0.02732795
-0.00730765,-0.06615373,-0.01440297
0.01039154,-0.03599174,-0.02012075
0.03193021,-0.01444062,0.007109282
0.05048563,0.02910324,0.01245138
-0.02082405,0.04842111,-0.0073458659999999995
0.04672407,0.0018062739999999999,0.04977119
0.009565835,-0.01104994,0.03091494
-0.008453646,-0.0581471,0.03148543
-0.0008838644000000001,-0.03579574,0.001812922
-0.01700958,-0.08612489999999999,0.01116649
0.01254925,-0.03865313,0.002428495
0.002594387,-0.0144577,-0.001696826
-0.01288802,0.02499001,0.01196936
-0.01106885,0.02680663,-0.026922900000000003
-0.03190687,-0.009817939,-0.01811465
-0.02168311,-0.05521983,-0.006143638000000001
0.004650314,-0.02083612,0.0164903
-0.000390844,-0.05214988,-0.007619552
-0.02089847,-0.08000758,0.0117696
0.06783945,-0.007980186,0.04245855
-0.01529011,-0.02091926,-0.01827343
0.02153949,-0.04189835,0.02961593
0.02441211,0.03740054,0.01465101
0.04208226,-0.00981935,0.02676595
0.002385571,0.03951785,-0.01792669
-0.0034476040000000004,0.01976461,-0.03162165
0.02645553,-0.03057151,0.0001852196
0.0059545380000000005,-0.05263362,-0.03343074
-0.01079975,-0.1000761,-0.03783535
-0.01271682,-0.03576308,-0.05137505
-0.001595525,-0.01498599,-0.009201429
-0.01384311,-0.01220068,0.005861877
0.01391097,-0.04523883,0.02705589
0.006126676,-0.1113546,0.02963552
0.0008178095,-0.04193642,0.008222802
-0.02115917,-0.05034248,0.01699764
-0.01995834,0.011275,0.01793623
-0.01708827,0.03883063,0.03019433
-0.03316282,0.004169561,0.0007349103999999999
-0.02373643,-0.005490424,0.01430855
-0.02085126,-0.03744487,0.01692405
0.01719779,-0.06524139,0.02010497
0.0037564240000000004,-0.0900095,-0.01461187
-0.01091489,-0.1270449,-0.0068937569999999995
-0.005669815999999999,-0.07141595,0.01095814
-0.01817668,-0.04937624,0.01153833
0.0006353770999999999,0.02449469,-0.008436898
-0.0064647540000000005,0.005073387,-0.0206386
0.007832101,-0.0319408,0.01916516
0.0008563027,-0.01175276,0.02272914
0.01304601,0.01537586,0.01320476
0.0318476,-0.01923717,0.02846077
0.006390186,-0.03736129,-0.003638775
0.01297845,-0.01353529,0.0032356040000000004
-0.0046252590000000005,0.01900786,-0.01344494
-0.01552325,-0.055507600000000004,-0.020910400000000003
-0.01176875,-0.02696099,-0.01488755
0.0016555570000000002,-0.05630403,0.02724932
0.007761915,-0.02752493,0.009221583
-0.00457547,-0.05213917,0.014458700000000001
0.0067432130000000005,0.02456098,-0.02796986
0.02277314,-0.02621945,-0.003078503
-0.006856223000000001,-0.06937346,-0.007456457
0.0183145,-0.02799992,0.009253121
0.03493717,0.01756847,0.01881289
0.03028087,-0.02145328,0.0060774340000000005
-0.009606009,-0.01315494,0.00345382
0.002907457,-0.02198392,-0.000589555
0.02805304,0.03999504,-0.02073844
0.0447879,-0.00822044,0.04003758
0.03297433,-0.06028844,0.009555810999999999
0.06378813,-0.04697746,0.02938842
0.05660991,0.05138094,-0.003801815
-1.030555e-05,0.02589121,-0.01462236
-0.001967097,0.02030024,-0.01381502
0.003932361,-0.02124633,-0.03008412
0.03140121,-0.02780444,-0.002132013
0.0007638428,-0.0471371,-0.03167157
0.0183524,0.008986283000000001,-0.006243834
0.04909166,-0.02237605,0.008169545
0.01562038,-0.03469537,0.039722900000000005
0.01316074,0.02336518,0.0021515270000000003
0.004168697,-0.05345277,0.01053112
0.01642483,-0.06625193,0.03621773
-0.02110308,-0.07531682,-0.0060364730000000005
-0.0177503,-0.12265050000000001,0.02424007
-0.01546229,-0.03587399,0.02733685
-0.004116365,-0.01463869,0.03086079
-0.01663486,0.017159200000000003,0.009211106
-0.02912962,0.02567935,-0.001822901
-0.01819909,-0.049944300000000004,-0.01294847
0.04010434,-0.004688974,-0.03838888
0.04106701,-0.0024701560000000003,-0.03598126
0.07799598,0.06185189,-0.007276408000000001
-0.003370466,0.0574538,-0.0427043
-0.0072716330000000004,0.03151612,-0.05532284
-0.02823313,-0.05011695,-0.05307919999999999
0.00476001,-0.0634553,-0.03975496
-4.8266030000000004e-05,-0.07588194,0.007236149
0.02793062,-0.05041159,0.01174909
0.00781066,-0.0009607411999999999,0.007428566
-0.03219808,0.009843379000000001,-0.01426875
-0.01164111,-0.04698331,0.03962269
0.01007455,-0.01791596,0.02221673
-0.0010988039999999999,0.006829295,0.01780157
0.02233576,0.0397965,0.04387701
-0.048141699999999996,0.00971944,0.01649449
-0.008721151,0.009337475999999999,0.005225411
-0.06383454,-0.12063130000000001,0.005441319
-0.014174899999999999,-0.09360611,-0.006613743
-0.05393667,-0.06809388,-0.02800823
-0.01881889,-0.04421129,0.00145789
-0.009542265999999999,-0.037907800000000005,-0.01032579
-0.07773922,-0.056228499999999994,-0.01757107
-0.02473728,-0.08530478,0.04099168
-0.01472994,-0.05969531,0.02859685
-0.04372589,-0.10836869999999998,0.02259577
-0.02646727,-0.07825159,0.004210640999999999
-0.02068491,0.01743433,0.01671379
-0.07126173,-0.05016546,-0.008306216
-0.003905015,0.06661391,0.02142848
0.03046101,0.01364405,0.04554926
-0.03046947,-0.02290794,-0.0003845254
-0.02064857,-0.05569705,-0.001488835
-0.009781643000000001,-0.02562392,-0.008165843
-0.04050888,-0.02207265,-0.02348793
-0.04969919,-0.005826456,-0.04961675
-0.01896902,-0.02845602,-0.02151237
-0.01066733,-0.007556941,-0.03198741
-0.08105443,-0.02624181,-0.055496800000000006
-0.03511985,-0.02123114,-0.001882054
-0.02768532,-0.01736467,-0.0185985
-0.07091033,-0.03442446,-0.05545402
-0.03296947,-0.04345109,-0.03187695
-0.04601083,-0.1125613,-0.04636699
0.007082966,-0.08237945,0.005273007
-0.04242646,-0.0557313,-0.01322728
-0.0485807,-0.03170933,-0.001483966
-0.04365826,-0.07270803,0.0015005860000000002
-0.05228751,-0.07653226,0.008238284
-0.02807549,-0.009207992,-0.01334301
0.004863258,0.007257551,0.07224312
0.009327151,-0.03824571,0.02684565
0.00037859870000000003,-0.162072,0.005388658
0.05172412,-0.1023442,-0.02401627
0.05325466,-0.015075100000000001,0.04522905
-0.06709011,0.10738510000000001,0.04333522
-0.07812637,0.09095674,0.04751117
-0.0369204,0.02956458,0.04139959
-0.02447071,-0.07775599999999999,0.06266503
-0.00032787489999999995,-0.05351375,0.01937026
-0.07260832,-0.1409777,-0.01935047
-0.07522811,-0.01070566,-0.03026934
-0.02851261,-0.06069444,-0.05025627
0.02541307,-0.09389568,0.004913267
0.0152953,-0.07496397,-0.02269337
0.06352352,-0.1224982,-0.02554881
0.01334678,-0.18375450000000002,-0.06778786
-0.03220465,-0.1779155,-0.08919803
0.01139169,-0.1576882,-0.06005806
-0.005437214,0.02046889,-0.01700395
-0.01269943,0.05293929,-0.07146589
-0.009186788000000001,0.004991032,-0.04709128
0.01547848,0.01124399,-0.01652859
-0.02501356,0.06113684,-0.03694397
-0.0459175,0.1086973,-0.06648722
-0.03895951,0.03462149,-0.01269869
-0.0139091,-0.0047077690000000005,0.01252401
0.09622756,0.11595710000000001,0.04550553
0.08255267,0.16459870000000001,0.06736782
0.053801199999999993,0.2145464,0.07545495
0.0755554,0.1951548,0.05994205
0.03814427,-0.006297445,0.04972038
0.06287628,-0.1381515,0.03236549
-0.03209245,0.03998626,0.00145733
-0.02630509,0.1841915,-0.01210695
-0.006321531,0.13856,0.00411719
0.008041594,-0.1929151,-0.09021614
0.07549814,-0.16930839999999997,-0.10200139999999999
0.163204,-0.128716,0.01026382
0.04024277,0.034371399999999996,0.07468372
0.02639541,0.1756011,-0.01399191
0.03807898,0.05557773,-0.04150087
0.03322646,-0.001683585,-0.008006038
0.08961827,-0.03007847,0.03424352
0.024431,0.00265622,-0.03134083
0.08977722,0.02248861,-0.11087449999999999
0.142025,0.05369346,-0.1039535
0.2229714,0.02216672,0.01736105
0.17178410000000002,-0.01013939,0.08390366
0.07457218,0.04927722,0.02154616
0.02778084,0.03598017,0.009045068
0.04344383,0.008793985,-0.03127873
0.027998200000000004,-0.1280278,-0.006976146999999999
0.05332819,-0.1669731,-0.03419293
0.0156782,-0.2221509,-0.04520962
0.004062817,-0.162179,-0.02635828
-0.03104364,-0.1097927,-0.01798739
-0.1105213,-0.1777935,0.009725854
-0.10839280000000001,-0.16194760000000002,0.01547446
-0.08793598,-0.1649379,0.02828341
-0.0031261740000000002,-0.1232594,0.07974195
-0.02011918,-0.006886985,0.04946669
-0.02987605,-0.01473725,0.05688628
-0.0429473,0.0339,0.0667724
-0.05046583,0.07142648,0.03427975
-0.05460589,-0.01882908,0.03894581
-0.04517156,-0.03151044,0.002377898
-0.01749254,-0.05743709,-0.001037186
0.00585085,0.0018282620000000002,-0.02014771
0.01681304,0.07058221,0.05683463
0.00038585160000000003,0.09559566,0.03143186
-0.08118068,0.05226844,-0.02364491
-0.04596605,0.04841519,-0.02159498
-0.03663719,-0.06430572,-0.02424005
-0.02711149,-0.03578557,-0.04238558
-0.01753999,0.001329605,-0.03352525
-0.01209779,-0.002915777,-0.02416598
-0.01350215,0.0003224276,-0.030984699999999997
-0.05323932,-0.05299635,-0.02642995
-0.05826622,-0.09621912,-0.02469238
-0.06384543,-0.06805208,0.006332355
-0.10965219999999999,-0.13324729999999999,0.0035633929999999998
-0.05415339,-0.14928229999999998,0.04847145
-0.0598826,-0.185245,0.02622283
-0.04478449,-0.09595798,0.01198494
-0.05097201,-0.08387566,-0.002310459
-0.02968504,-0.07251757,0.006115635
-0.015330100000000001,-0.0005837157,0.0157392
-0.02902968,-0.06892186,0.01700639
-0.01755829,0.003140382,0.01433675
-0.02412271,-0.04492236,-0.02341601
-0.01737024,-0.01111228,-0.01908041
-0.01932959,-0.04670062,0.0008657564999999999
0.00325759,-0.00232394,-0.02148627
0.05240231,0.02530863,0.01624935
0.01525141,0.03934482,0.01278889
0.04045065,0.10564839999999999,0.01035506
0.02761484,0.1268037,-0.0009062047999999999
0.02379709,0.1063497,-0.02162241
0.05507835,0.02804535,0.01808911
0.04408705,-0.02417726,0.02017756
0.02014614,-0.03245674,-0.004119932
0.01918383,-0.07631832,-0.0104131
-0.006743921,-0.0412781,-0.006942849
0.01011561,-0.01790172,0.03458834
0.01837045,-0.02328676,0.0310147
0.007385452,-0.02398723,0.03357556
-0.02865755,-0.05691582,0.008112601
0.002492566,-0.03115039,0.02615672
-0.01340381,-0.06268401,0.03454236
0.03038464,-0.0162899,0.02169583
0.04235895,-0.04924752,0.01990507
0.03148245,-0.09304745,0.023428499999999998
0.04596191,-0.03083547,-0.0045085459999999996
-0.01013438,-0.090097,-0.02969559
0.04232052,-0.0271785,0.008980379
0.03791786,-0.04582274,0.04082383
0.01498763,-0.01221695,0.004723975
0.04117239,0.006184729,0.001492051
0.0201109,-0.01352465,-0.008776649000000001
0.0006765253,-0.01272625,-0.01161604
0.01283437,0.01771596,0.0072449030000000005
0.02593226,0.03131428,0.009649614
0.02053378,0.01769834,0.005671289
0.02981352,-0.03035263,0.008160797
0.00034615050000000005,-0.02756978,0.006372781
0.01656246,-0.03418486,0.0348973
-0.01987723,-0.04359323,0.01242973
0.004994923,-0.01228219,0.00463597
-0.02180733,-0.009602355,-0.0334342
-0.05009943,-0.02781519,-0.006670397
-0.02489596,-0.03390737,0.013659200000000002
-0.006370794,-0.01891951,0.00826411
-0.03475285,-0.08217391,-0.000233192
-0.05672603,-0.03035024,-0.01669828
-0.01551031,0.01336587,-0.0250339
-0.04374488,-0.01696196,-0.01120939
-0.0034335959999999997,-0.005095944,0.002766577
0.01341146,0.004097234,0.008705342
-0.02396425,-0.080138,-0.003689915
0.03225521,-0.05989961,-0.01488503
0.02190394,-0.06215913,0.01839667
-0.02584357,-0.02632864,-0.05484536
0.02857919,-0.01201428,-0.02673747
0.04581605,0.009098913,-0.01627792
-0.002067667,-0.03988311,-0.01484161
0.021038400000000002,-0.06742328,0.01876881
0.02871986,-0.02475677,-0.00198823
0.01387178,-0.08204263,0.02348314
-0.008086797,-0.03231409,0.003626235
0.01254587,-0.009279793,0.03839008
0.01566754,-0.06512516,0.02618518
-0.00585384,-0.05302062,0.02873781
0.01727211,0.02175552,0.02309731
-0.006663822,-0.01322715,0.006312499
-0.01339452,-0.05742092,-0.01434534
0.028988999999999997,-0.04992807,-0.006479135
-0.01287069,-0.07428899,-0.03668856
0.04680908,-0.07266815,0.03954555
-0.005012665,-0.01282511,-0.05557353
-0.009246798,-0.08257973,0.009813437
0.02105351,-0.01482302,0.0243541
0.05274559,0.03099982,0.05633792
0.02008965,0.01729761,0.002224368
0.02738077,-0.003107043,0.01648419
0.004213129,-0.03658329,0.01622656
-0.00535242,-0.04895725,-0.01714964
-0.01194261,0.01930107,-0.004438859
-0.02441896,0.0030225670000000003,-0.01596308
-0.006577665,-0.04816109,0.0033805009999999997
-0.04177936,-0.08661263,-0.02360248
-0.0216688,-0.04107095,-0.02765301
-0.04340681,-0.03557649,-0.03713477
-0.01256212,-0.02467558,-0.01851116
-0.01817772,0.009560548,0.0026667509999999998
-0.04571865,-0.06821703,0.002149517
-0.06082351,-0.07088127,-0.03526696
-0.04642754,-0.06036847,-0.03640589
0.007742076999999999,-0.004922755,-0.01361251
0.01131672,0.008333608000000001,0.02397254
0.03251977,0.03034537,0.02489001
0.003545672,0.008346258,0.04496513
0.02231611,0.00690886,0.01249022
0.01042489,-0.00483655,0.009630463
0.01034747,-0.02225855,0.009476481
0.03441003,-0.0022416660000000002,0.01094014
0.04016574,0.009172508000000001,0.05117007
-0.01065836,-0.01973572,0.01978558
0.04607402,-0.03896056,0.03642626
-0.03186286,-0.11243589999999999,-0.01449988
-0.002984518,-0.0342021,-0.01038932
-0.003348486,-0.05874696,0.03567545
0.009419775,-0.004234275,0.02066591
0.01765773,-0.00047936290000000003,0.02410296
0.01086504,-0.03676792,0.02384044
-0.02795635,0.00839412,-0.03360315
0.02284268,0.02400123,-0.0037966809999999997
0.01327891,-0.01049199,-0.006713144
-0.02530619,-0.08518439,-0.01219837
0.02214283,-0.04784456,0.01926122
-0.02058859,-0.02325368,-0.03454084
0.03500135,-0.02264621,-0.02242108
0.05567096,-0.01464029,-0.009025723000000001
0.03777063,-0.03578567,-0.000874998
0.009126492,-0.03154593,-0.01962031
0.01651342,-0.01670444,0.008531699
0.01183381,-0.03397384,0.02735066
0.03385056,-0.04594303,0.009433725
0.06473218,0.02668073,0.0150037
0.03719363,0.0045241909999999995,0.007032521999999999
0.02445735,0.04617801,0.04463569
-0.01857134,0.04002258,0.0015244339999999999
0.001425974,-0.004816160999999999,0.02763624
-0.02238408,-0.01120839,0.01945744
-0.01895066,-0.01024855,0.01062127
-0.00640774,-0.07048039,0.008191155
-0.0001749271,-0.05299167,-0.01096222
-0.01158613,-0.07758798,0.01563203
0.00890554,-0.004871719,0.01252706
-0.02169126,-0.06333917,0.01410145
-0.02850774,-0.05525184,-0.02288401
0.009071929,-0.02715698,0.01134825
0.01160101,-0.03901888,0.04365
-0.00430195,-0.0419741,0.02346607
-0.0044174309999999994,0.002162898,0.02687863
-0.04296339,-0.01660302,-0.007419345999999999
-0.01670252,-0.05603769,-0.0003903871
0.003014759,-0.01692412,-0.0167456
-0.03483124,-0.06023786,-0.009936358000000001
-0.02583455,-0.02126015,-0.02115932
0.009871424,0.0049004009999999995,-0.0077860130000000005
0.006691019,-0.02006904,-0.01034693
-0.005807791,-0.03487772,0.01302023
0.001622068,-0.03035266,-0.01631952
0.002600531,-0.04957171,0.007309254
-0.004954237,-0.04108028,-0.01187537
0.01201619,-0.02826256,-0.00911339
0.03939531,-0.00924781,0.03099282
0.0027858559999999997,0.01216982,0.02334944
0.01891009,0.0231833,0.009350113
-0.02817661,-0.02797587,-0.0077741369999999995
0.01315034,-0.05174383,0.03790882
-0.00316153,-0.06784245,0.0031540609999999997
-0.01945555,-0.06978434,0.01987342
0.04310155,-0.02429144,0.02154497
0.02598271,-0.01018295,0.008151786
-0.01666557,-0.03362708,0.007816716999999999
-0.007932009,-0.006398424000000001,0.01762874
-0.01171371,-0.01242883,-0.01392523
0.01097194,0.002604162,-0.01743539
-0.005845633,-0.03410389,0.001240284
-0.01984838,-0.03089566,-0.00529856
-0.04297659,-0.02924366,-0.01228731
-0.02827673,-0.04502845,0.007536936
-0.02369943,-0.04203659,0.02943197
0.05163299,-0.01786338,0.04241662
0.03413645,-0.005932616,0.05587069
-0.004329546,-0.03130862,-0.007411725
0.02523195,0.02579181,-0.03901695
0.02833463,0.01965095,-0.01467462
0.03435713,0.06874613,-0.01832832
0.005126585,0.01830264,-0.02694169
-0.01708257,-0.02364638,-0.04173005
0.00537669,-0.04321113,0.004198601
0.02333212,-0.0240437,-0.04943967
-0.017139599999999998,-0.003361355,-0.03495957
-0.0031799740000000003,-0.05224358,-0.0001350263
-0.007772685,0.003440253,-0.007078493000000001
0.004560815,-0.03061757,-0.01481065
0.01942297,-0.03941238,0.03129878
-0.01144017,0.02253591,0.01256094
0.0165842,-0.001721788,0.05177503
-0.02134599,0.01688762,0.01389218
-0.0174391,0.01155117,0.01436697
-0.006749471,-0.04263748,0.01435263
-0.02348171,-0.01572575,0.006639201999999999
-0.01147744,0.02359675,0.01346914
0.01409361,-0.0002991594,0.02405273
-0.006688638,-0.01459613,-0.003049074
0.08651691,-0.08631589,-0.03336749
0.09100763,-0.009867014,-0.0242769
0.08356012,0.1808235,0.03011375
0.1237825,0.4205225,0.02513352
0.05274949,0.39114990000000005,-0.03574318
0.1101675,0.1846396,-0.022719299999999998
0.1563009,-0.09981807,-0.1168025
0.1713161,-0.13701,-0.08537646
0.08369587,-0.05259816,-0.10245510000000002
0.08904574,-0.03819493,-0.09046845
0.06866434,-0.1358562,-0.07264807
0.02583313,-0.3085197,-0.07055476
0.05794236,-0.2693065,-0.01522516
-0.0030985270000000002,-0.2638119,0.008447496
-0.09499861,-0.228859,0.01947007
-0.10070499999999999,-0.2344623,0.0283002
-0.12453980000000002,-0.147429,0.02783285
-0.12164870000000001,-0.1293767,0.07043312
-0.1459177,-0.1740149,0.1022558
-0.1270656,-0.11469180000000001,0.06996433
-0.1376501,-0.15290979999999998,0.06917005
-0.1039037,-0.053357600000000005,0.01215354
-0.05078571,0.1072422,0.05696961
-0.1094826,0.07225418,0.06570219999999999
-0.09790907,0.1018114,0.01300642
-0.114826,0.12379369999999999,-0.03905142
-0.05045438,0.06542113,0.01420913
-0.03697576,0.04360835,0.02115953
-0.003720464,0.08077377,0.06296573
-0.05680778,-0.10611480000000001,-0.03926743
-0.05566406,-0.07718071,-0.01092937
-0.01280902,0.03737729,0.04734962
-0.08113846,0.04260595,0.08185281
-0.07974208,0.104527,0.0418959
-0.08704037,0.1173469,0.07582863
-0.12876089999999998,0.0005770829,0.00131771
-0.02964698,-0.03327803,0.05887177
0.006578124,-0.0815143,0.02570193
0.002338275,-0.2612253,0.06860933
0.07552548,-0.14547079999999998,0.06760423
-0.06656304,0.10476889999999998,-0.05516169
-0.08656258,0.04857564,-0.06430466
-0.007772529,0.007174972,-0.04892261
0.05636147,-0.2953462,-0.0590024
0.1399707,-0.2409804,-0.03902179
0.1100844,-0.1198355,0.004740734
0.05645106,0.0006379876,0.011309999999999999
0.07487689999999998,-0.01702885,-0.03892741
0.145852,-0.05682978,-0.03634212
0.10723379999999999,0.01184689,-0.05672511
0.04906165,-0.01835732,-0.03563627
0.1168029,-0.01712048,-0.04211548
0.01285842,0.01974861,-0.01852427
0.06359635,0.08718898,-0.01779229
0.11558489999999999,0.1187627,0.0020032229999999997
0.0071375219999999994,0.22008379999999997,-0.04345842
-0.1047738,0.06273974,-0.05256325
-0.07524226,-0.1822335,-0.06657401
-0.01342857,-0.21699970000000002,-0.009373115
-0.0187444,-0.18097629999999998,0.039968300000000005
-0.0007343022,-0.03987318,-0.01704478
-0.02984045,-0.08646473,-0.06328172
-0.0207874,0.06442063,-0.03158933
-0.08832701,0.18759579999999998,-0.005728345
-0.15444760000000002,0.2774448,-0.03602467
-0.140381,0.05878223,-0.13044429999999999
0.07445527,-0.04141095,-0.1159511
0.10047619999999999,0.08528377,-0.05981961
0.07008044,0.2569589,0.02516392
0.03412828,0.2246071,0.001446556
0.01408345,-0.02123544,0.02120806
0.1451007,-0.2941384,0.02490454
0.1453533,-0.2716857,-0.0206139
0.117567,-0.12055430000000002,0.02021771
0.07625969,0.006661146,0.04466579
0.00726808,0.05532377,0.0007179056
0.01210589,0.01039505,0.018123
0.03479405,-0.03478359,0.013266499999999999
0.03538587,-0.14142639999999998,0.02290261
0.03848961,-0.25993920000000004,0.04599901
0.013702500000000001,-0.07909986,-0.02486338
-0.02482155,0.01879864,-0.05292542
-0.004515791,0.09840165,-0.06432339
0.02158822,0.1666608,-0.05390617
0.0464852,0.07429484,0.05181218
-0.01628075,-0.0911582,-0.013103
0.03376494,-0.08837764,-0.01727419
0.040053899999999996,-0.05211483,-0.01516878
0.08647402,-0.009966444,0.03354004
0.008345714,-0.0002268255,-0.05322979
0.02816683,0.04813404,-0.009459007
0.06641503,0.13903970000000002,0.02649194
0.01665981,0.1036994,-0.02823138
0.00856147,0.08571693,-0.04658281
0.01012001,0.002628669,-0.05307215
0.05222182,-0.0938219,-0.04843716
0.07452849,0.004216421,-0.04199734
0.04628669999999999,0.1054319,-0.0424961
-0.0028926570000000003,0.1026067,-0.01732593
-0.06016555,0.13362420000000003,-0.06641296
-0.05592711,-0.07925975,-0.0413469
-0.02958503,-0.20567870000000002,-0.02555823
0.0578992,-0.3322196,0.0311385
0.01759437,-0.2796785,0.02127774
-0.02786431,-0.13000119999999998,0.04142084
-0.05146077,0.001681369,0.04160152
-0.08365211,0.05185256,0.08831526
-0.08162711,0.001525581,0.1287874
-0.08151041,-0.06995456,0.053550099999999996
-0.08158986,-0.1155202,0.09178039
-0.05765517,-0.1268471,0.08997849
-0.02459709,-0.16702039999999999,0.1144302
-0.03149969,-0.1284556,0.08996729
-0.07194058,-0.1004575,0.05964549
-0.10106160000000002,-0.09005377,0.07581738
-0.03186475,-0.04521667,0.1041674
-0.05302077,-0.05007121,0.08911334
-0.04551746,-0.04455562,0.03640454
-0.05130192,-0.007807435,0.05358885
-0.07170169,-0.0249446,0.04085545
-0.01960297,0.08031626,0.04022767
-0.02903566,0.06839018,0.07603122
-0.04152525,-0.02982798,0.01583945
-0.04845493,-0.02632136,0.001757
-0.01124282,-0.02788285,0.01983115
-0.007865493000000001,0.0148124,0.01169537
-0.007102277,-0.03368162,0.03599582
-0.0182139,0.003431506,0.002344637
-0.03270889,0.001667079,-0.01142284
-0.0318087,-0.06084563,-0.04332657
-0.01043163,-0.01539711,-0.01955615
-0.007051148,-0.0326822,-0.02668544
0.01808462,-0.04022031,-0.0246399
0.06329344,-0.053956899999999995,0.02816618
0.03954215,-0.07634647,0.005285803
0.04454317,-0.03258575,-0.0030387659999999996
0.04315493,-0.003680658,0.006798746
0.03258497,-0.02486436,0.00018635580000000003
0.02850933,-0.04677446,-0.02156609
0.07261588,0.008108594,-0.02485325
0.041562199999999994,-0.02680823,-0.01691707
0.0414039,-0.02357412,-0.02326137
-0.0120917,-0.06530671,-0.04127122
0.006981689,-0.05360642,-0.02397478
0.006121336,-0.05277083,-0.05175112
0.037302300000000004,0.01379728,-0.03558965
0.02102949,0.003779476,-0.02823079
-0.008172926,0.02859357,-0.09355082
0.0195577,-0.01195297,-0.06145615
0.05786736,-0.01073546,-0.004662156
0.01469404,-0.02622759,-0.05861189
0.0006404258,-0.01463163,-0.08409589
-0.03873744,0.04069683,-0.11784469999999998
-0.02345997,-0.03731557,-0.09567063
0.02836002,-0.00024871159999999997,-0.04851021
-0.0186697,-0.05382421,-0.05961794
-0.00487417,0.01098108,-0.04555011
-0.05082197,-0.04773564,-0.039337800000000006
0.01014871,0.010789,0.009766438
-0.04542724,-0.021407,-0.0295283
-0.02983456,0.01997958,0.02474683
-0.03243953,0.01938409,0.03767923
-0.01757506,-0.008678004,0.06740856
-0.05402103,-0.01084935,0.0139773
-0.01482733,-0.03532812,0.04136414
-0.05342256,-0.0201495,-0.0067036990000000005
-0.024316900000000002,-0.01438545,0.01828432
-0.0336803,0.02475635,0.02084388
0.02059142,0.04569035,0.05298842
-0.004988746,-0.04192223,0.0252438
-0.03130298,-0.05795882,0.008051541
-0.03252888,-0.06741759,-0.004846474
-0.0003652703,-0.03264347,0.0490226
0.01274162,-0.01472653,0.04441695
0.0026532540000000003,-0.07267709,0.05052053
-0.0011480260000000001,-0.04069655,0.03614439
-0.03168374,-0.02163903,0.01351011
-0.02445267,0.02102854,-0.0007070908
0.01048078,-0.02295005,0.05202695
0.03519034,-0.02142765,-0.001739519
0.023556599999999997,-0.05473283,0.02061387
