Acc_x,Acc_y,Acc_z
-0.03217564,-0.01527295,-0.03228066
-0.03164162,-0.05352767,0.002535249
-0.008383551,-0.04025629,-0.001154444
0.04612842,0.01118956,0.02157899
-0.06382853,-0.04747674,-0.02761025
-0.0117917,-0.01050831,-0.003048123
0.03466054,-0.01569142,0.01850863
-0.006742102,-0.008698054,0.0048919409999999995
-0.02129469,-0.01255715,0.0222
0.01974946,-0.03001149,0.02304479
-0.03081403,-0.06736748,-0.01982522
-0.003490777,0.02303763,-0.02935759
0.00036789879999999997,0.01753839,0.0015990779999999999
-0.0002254727,0.01327338,-0.01911472
-0.0333477,-0.01303974,-0.02313823
-0.001011253,-0.02685176,-0.009753745999999999
0.03730911,-0.04355745,0.004290838
0.03641892,-0.02191032,-0.03120587
0.02712675,-0.02447118,-0.00967683
0.04309857,0.03383053,-0.03363207
-0.01567086,-0.004483175,-0.01315115
0.0172025,0.0032002479999999997,0.00995185
-0.008951279,-0.03270391,-0.008408770999999999
-0.01007112,-0.0252694,-0.01400353
0.005482035,-0.002949465,0.0114517
0.01792317,0.06374537,0.007641167
0.007975161,0.03442999,0.008268474
0.006851615,0.02046175,0.02008899
-0.001831639,-0.003769105,0.03523444
-0.01589268,-0.034695300000000005,0.04902283
-0.02010006,-0.03561255,0.009155188
-0.0044260079999999995,-0.0384718,0.04797282
0.002812479,-0.034477,0.02538657
0.009346941,-0.01745262,0.01872084
-0.01641581,-0.05503937,0.018135299999999997
0.01074093,0.001341155,0.01307567
-0.009489224000000001,-0.01363101,0.01388042
-0.0297665,-0.02828856,-0.01639665
0.002553965,-0.01954314,0.03233081
0.03381166,-0.01500564,0.039807800000000004
-0.01296633,-0.058532100000000004,0.033187400000000006
0.01436802,-0.01541794,0.02685228
0.0025163029999999997,-0.0039078,0.003497615
0.0107025,0.006276015,0.006278713000000001
0.003496028,-0.01063955,-0.01494654
-0.0026385429999999997,0.003283915,-0.02361959
0.0069908719999999995,-0.05015032,0.01775352
-0.01685723,-0.06067438,0.008571852
0.0115544,-0.02730833,-0.006982016999999999
-0.0073033,-0.03785654,-0.03600759
-0.003074486,-0.0226955,-0.02708268
-0.01548504,-0.03539,-0.006367662
-0.0059229190000000004,-0.01253939,-0.01023013
-0.007327521,-0.02718859,-0.01925259
0.0039652509999999995,-0.07047786,0.00648322
0.01729539,-0.04588152,-0.0015018260000000002
0.01009889,-0.0003768783,-0.002594335
0.04095906,0.03158199,-0.0027076459999999998
0.0006038914,0.008599032,0.02722643
0.01122445,0.008990373000000001,-0.01278424
-0.02736102,-0.01411652,-0.008543422
0.003247266,-0.01791369,-0.00302143
0.02273988,-0.04051913,0.02896334
0.0446858,0.004481392,0.05025038
0.03364924,0.03692997,0.009538315
-0.01631094,0.01930914,-0.001520849
-0.01489789,0.004074695,-0.01916948
-0.01200337,-0.01585736,-0.002361114
0.02579424,-0.02884658,0.005432099
-0.0180854,-0.01505746,-0.02251078
-0.00559944,-0.0199896,0.008988788000000001
0.01107073,-0.05525531,0.04471941
-0.002927716,-0.0288308,0.04559559
0.001211953,-0.04924606,0.01786204
-0.037302499999999995,-0.03463136,-0.01125584
0.01082148,0.03881377,-0.0019602
-0.01215363,0.04635053,-0.003938186
-0.02840194,0.02508573,-0.01603593
0.006968284,-0.01749496,0.01037072
0.001376662,-0.06570169,-0.02699006
-0.01121444,-0.06367593,-0.07129271
0.02905701,-0.07775915,-0.01593047
0.02059179,-0.02636239,-0.04349821
-0.0038911320000000003,-0.01847679,-0.02155107
-8.051866e-05,-0.059656100000000004,0.02394453
0.03012785,-0.06909186,0.04742453
-0.002374799,-0.03839253,0.02488476
-0.01225762,-0.00021613549999999998,-0.01215925
0.0050892559999999995,0.02812396,0.007512141
-0.0011694989999999998,-0.03440553,0.04462483
0.0184334,0.04175153,0.02238291
0.05186627,0.03588244,0.07252941
0.0008407022999999999,0.01978967,0.0248112
-0.0489483,0.002827543,-0.009693328000000001
0.008796722,0.01306841,-0.01611933
-0.02332777,-0.0951278,0.0073229440000000005
-0.01238979,-0.05345079,-0.02809038
-0.01732905,-0.03629719,0.0006139989
0.04127487,-0.05819366,0.05132221
-0.0057015009999999994,-0.0162086,-0.01701203
0.02248673,0.0053515,0.0106627
0.05106683,-0.00764849,0.03154261
0.01767009,-0.01923349,0.03928222
0.01229282,-0.024441,0.0205327
-0.01871004,-0.03668823,0.006428073
0.008048332,0.01991482,0.0049319329999999995
0.02366264,-0.01461387,0.03733486
-0.002964505,-0.04045187,0.03087495
-0.002958812,-0.02500761,0.002330881
0.01649272,-0.03718341,0.02711825
0.0031655990000000003,-0.04542551,0.01087592
0.00383275,0.01867107,-0.005055889
0.009129978,0.02267584,-0.01158892
-0.03498274,-0.01999472,-0.01144539
-0.04079743,-0.02592861,-0.02683867
0.02295763,-0.03070502,-0.006091528000000001
0.01297562,0.008801777,-0.02194548
-0.03351391,-0.01951551,-0.023827900000000003
0.002360104,-0.01020098,-0.02402641
0.01780326,-0.004852813,0.0002780221
0.02662553,0.03369074,0.01539705
0.01073242,-0.00528672,0.008893556
-0.00372703,-0.03513609,0.009921751999999999
0.008963473000000001,-0.04005138,0.01915851
-0.01952464,-0.01543754,-0.01376933
0.01574745,-0.02175968,0.02649401
0.01285417,-0.004325626,0.001237246
0.01204527,-0.01299034,-0.005077295999999999
-0.02746924,-0.02157091,-0.02273309
-0.02342697,-0.006012964,-0.0014158460000000001
0.0008211711,-0.04826851,0.007403738000000001
-0.003502349,0.01094152,-0.03554215
-0.02161706,-0.04581064,-0.01487596
-0.01584585,-0.03989779,0.006196436
-0.01978559,-0.04877058,0.04778233
0.01166045,0.03445198,0.0116131
0.0010355260000000002,-0.007260735999999999,-0.006240206
-0.01098401,0.05259896,-0.02878966
-0.03193384,0.01581625,-0.04125768
0.03525289,0.02462516,-0.01478859
0.005461232,-0.04595739,0.009893138000000001
0.008492534,-0.02088115,-0.01804759
0.06177811,0.02859695,0.0046314979999999995
-0.004707324000000001,0.01519118,-0.01983742
-0.01832692,-0.02965706,-0.03255529
-0.006691906,-0.03338768,-0.01264423
0.00663769,-0.03376624,0.006635187
0.0005907395,-0.09290117,0.01190085
0.04798346,-0.08518393,0.0287791
0.02405311,0.01153803,0.009212293
0.04545842,0.02370634,0.013058000000000002
0.017156900000000003,-0.01064773,0.02181721
-0.02170143,0.03927316,0.005631998
-0.006151069,0.02628147,0.01805565
-0.004976121,-0.01265539,0.04550139
0.00197335,0.04256468,0.02846469
-0.01845877,0.04540091,0.02340952
-0.001347871,-0.02349131,0.03570269
-0.001159474,-0.06009936,0.04040984
-0.009061686,-0.09658939999999999,0.00590084
-0.01375284,-0.11758800000000001,0.04994633
-0.0416191,-0.07915446,0.01243917
-0.03209525,-0.002566328,0.05650206
-0.02158503,0.06170399,0.04005731
-0.06189749,0.0381169,0.05453862
-0.07746162,-0.008080562,0.05987921
-0.1015308,-0.0597788,0.04569284
-0.09335738,-0.06011673,0.07270177
-0.06107667,-0.04586443,0.03627827
-0.08389598,-0.04681363,-0.01155367
-0.05648838,0.009669325999999999,-0.01773529
-0.01358838,0.0142173,-0.01147119
-0.01898721,-0.06271179,0.02651239
-0.014768799999999999,-0.004575793,-0.004646069
-0.04127967,-0.05376744,-0.007129781
-0.01245529,-0.01969019,-0.01651105
-0.02652592,-0.03188377,0.02741148
-0.07577388,-0.006520237,-0.01995642
-0.09736881,-0.01826936,-0.009828607
-0.04728811,0.03106754,-0.01698464
0.01874411,0.05987971,0.01190438
-0.026621499999999996,0.08997212,0.00646451
-5.4573640000000005e-05,0.11614719999999999,-0.01678312
0.02607035,-0.001449883,-0.01416671
0.03941676,-0.04457986,-0.01327306
0.035160199999999996,-0.05842973,-0.04467459
0.05168758,-0.0536616,-0.04097501
0.01814159,0.02286562,-0.04959543
-0.05090934,-0.01463427,-0.01598295
0.02207897,-0.06463002,-0.01046537
0.03599389,-0.05541071,-0.04475739
0.08550818,-0.1504004,-0.05970458
0.01964776,-0.1426905,-0.11788530000000001
0.1632946,-0.057001699999999995,-0.08382595
0.11267269999999999,-0.02128032,0.005142036
0.03552514,0.2821752,-0.03900665
-0.005271818,0.1788254,0.1030011
0.07706387,0.0747261,0.06592035
0.01813037,-0.07188610000000001,-0.02376386
0.1426481,-0.007835581999999999,-0.05669525
0.07176234,-0.02729182,-0.06600195
0.05651008,0.1633531,-0.01649394
0.04855105,0.24923620000000002,-0.06645988
0.020103299999999998,0.03183742,-0.027855
0.09525055,-0.05757497,-0.06076024
0.1389904,-0.05373043,-0.04186217
0.09784357,-0.01816181,-0.05663769999999999
0.08344687,0.1076913,-0.03700965
0.03251495,0.1651868,-0.04362487
0.04052639,0.03054856,-0.02703524
0.0320475,-0.14179029999999998,0.07400651
0.02450455,-0.14061729999999997,0.0002113727
0.01839196,-0.03662334,-0.02329856
-0.02600263,-0.0157266,-0.01486444
-0.02237451,-0.007935399000000001,0.02171899
-0.0009762845,-0.1502884,-0.03177781
0.0338726,-0.2221089,-0.01286272
0.008626769,-0.2060933,-0.02872635
0.02222015,-0.20756079999999996,0.01639827
-0.023728299999999997,-0.08321198,0.02754809
-0.1098843,0.01011608,0.07246923
-0.14772670000000002,0.08722018,0.06361204
-0.1173353,0.01825317,0.04057267
-0.12165,0.03061044,-0.01111769
-0.006301524,0.03007155,0.06892259
-0.07503586,-0.02541422,0.04142879
-0.06998595,0.02092872,0.04971746
-0.02582686,0.009679879,0.03361212
-0.03497535,0.02378412,0.05256608
0.003949231,0.1278767,0.03357217
-0.02430856,0.0871035,0.03637875
-0.02734424,0.01901532,0.01747601
0.03273358,-0.02203353,0.017277900000000002
0.01272193,-0.09881889,0.03032409
0.01794976,-0.11383030000000001,0.006641525
0.01830094,-0.09653099999999999,-0.0104052
-0.05484308,-0.08053892,-0.0488916
-0.02082767,-0.06315827,-0.01990789
-0.03176543,-0.004148908,-0.012843700000000001
-0.07551429,-0.06450401,0.01249393
-0.02201685,-0.01416207,0.0015756029999999999
-0.014363800000000001,-0.07893935,-0.02563626
-0.00697234,-0.09153129,-0.037668400000000005
-0.001063928,-0.0266656,-0.04613219999999999
-0.01335385,-0.04910351,-0.03722683
0.04363039,-0.06275809,-0.05736709
0.0620797,-0.01136306,-0.06169395
-0.01337668,-0.01983762,-0.07036149
0.07573525,0.0531989,-0.03671917
0.05154302,0.06747741,-0.03058302
0.04709101,0.01132201,-0.0303371
0.047211699999999995,0.02233608,-0.02266733
0.07927067,-0.03538044,0.01301785
0.04524318,-0.046597,-0.02694779
0.04431886,-0.0509425,-0.004000661
0.0026977909999999997,0.02926441,-0.05455308
0.01321241,0.09509692,-0.04150242
0.05882217,0.04365741,0.02913544
0.031092400000000003,0.08281261,0.04695466
0.005812814,0.02830257,0.03035307
-0.01656777,0.06742874,0.01179254
0.02236226,0.0222903,0.03986303
0.05241583,0.01094999,0.03019188
0.0008434009,-0.025112799999999998,0.005269735
0.01152091,-0.0769183,0.01574732
-0.025767400000000003,-0.07279468,-0.008550219
-0.04528179,-0.05342884,0.01554487
-0.0243143,-0.04823831,0.03237436
-0.03397605,-0.05288047,0.02441612
-0.02534348,-0.03360994,0.02615082
-0.009611048,-0.04410756,0.01546643
-0.01231453,-0.06313703,0.005336242
-0.06042164,-0.02176706,-0.01556143
-0.05056213,0.09318344,0.02458265
-0.02820175,0.06131118,0.04870528
-0.04339979,-0.007937022,0.02752554
-0.02076933,-0.07242206,0.03785168
0.03306282,-0.09013834,0.04208864
-0.0358627,-0.10630910000000002,0.0440435
-0.04174555,-0.0317667,0.01452391
-0.04029704,-0.005483954,-0.01609072
0.01907285,-0.013836600000000001,0.04399094
-0.0119056,-0.03996402,0.00585146
0.02350898,-0.04850251,0.035231599999999995
-0.02021167,-0.02661488,0.0259111
-0.01518432,0.0006233053,0.01708923
-0.002585247,-0.0242063,0.0298738
-0.03445074,0.01604752,0.01316525
-0.01405014,0.03679214,0.003969483
-0.003521631,-0.0003793314,0.002085828
-0.01093142,-0.01191943,0.008563915
0.03040584,0.05132822,0.00652654
0.01684875,-0.007129283,-0.0010417739999999999
0.0275139,-0.04118029,0.02647318
0.03374922,-0.02347061,-0.0084523
0.0141576,0.02451195,-0.04150559
0.03229469,-0.01248715,-0.02145064
-0.009002118,-0.007542472,-0.02426354
-0.01269033,-0.01493916,-0.04187898
0.01102025,-0.01660368,-0.05354999
0.07126925,-0.02168001,-0.008980948
0.02199019,-0.00040746989999999997,-0.03477859
0.02907718,0.01753228,-0.003679886
0.03289148,0.06418369,-0.0054927019999999995
-0.03361693,0.01796217,-0.04364002
0.05313592,-0.06019163,0.011112200000000001
0.06988921,-0.02106646,0.00377574
0.02334637,-0.03395286,-0.003887409
0.005087293,-0.02489796,0.005626585999999999
-0.01023278,0.02300197,-0.007849353
0.009200235,-0.0373463,0.01160948
-0.005879644,-0.0407345,0.02018892
0.05889665,-0.009880996999999999,0.01262516
-0.00518191,-0.024058,-0.01185711
-0.01026992,-0.01828813,-0.01444878
-0.01569618,0.02071449,-0.04513495
-0.003018032,0.02297278,0.02497053
-0.01764964,-0.02449838,0.02728529
0.01197661,-0.007984432,0.06708438
0.01356819,-0.01066331,0.04922738
-0.01845768,-0.02158447,8.309144e-05
0.03177887,0.01598721,0.01681929
0.03553774,0.01491534,0.02342846
0.03766116,-0.02924684,0.005992521
0.0150652,0.02217853,-0.03940476
0.0009169282000000001,0.07024381,-0.01443265
0.01772735,-0.01090499,-0.00714154
-0.004537019000000001,-0.01368859,-0.03058752
-0.01562702,-0.08277082,-0.02982788
-0.007094451999999999,-0.07838876,-0.02730952
-0.01299513,-0.1017373,-0.001587469
-0.02301364,-0.02033519,0.0019168170000000001
-0.01184907,0.002584532,-0.01376105
-0.01897405,0.006853216999999999,0.01587522
-0.009523961,0.01442232,-0.004979054
0.05117065,0.01953318,0.007809996
0.01359285,-0.02153582,0.0115004
0.0009172426,-0.03239346,0.01962731
-0.001969462,0.007325195,0.03331275
-0.02820611,-0.04437175,0.00469724
-0.03046132,-0.00767852,0.02420688
0.00600776,0.02731097,0.0009380095
-0.003547554,-0.03137991,0.01916936
0.03007895,0.01636692,-0.0026538459999999996
0.01948123,-0.0037734170000000003,0.02105816
0.04470809,0.01159232,0.009203243
0.05501232,0.01618538,0.03557233
-0.03190439,-0.013493100000000001,-0.03095214
-0.016462900000000003,-0.07321901,-0.002749526
0.01709162,0.001798063,0.00043241910000000006
0.01285957,0.0404717,-0.01009569
-0.02900569,-0.01336883,-0.01758594
-0.02960138,-0.02304196,0.01783916
-0.03326509,-0.01576212,0.01250552
0.003642533,-0.03528729,0.03601732
-0.01470733,-0.0242603,-0.02203511
-0.01854937,-0.04100685,-0.0002858168
-0.0033106570000000003,-0.03390182,-0.009633601
0.003212183,-0.05020344,-0.0084087
-0.01167901,-0.03947508,-0.02912314
-0.03004329,-0.06079933,-0.02009339
-0.01132172,-0.02855186,-0.02272764
-0.01517294,-0.008014676,-0.01968137
-0.003607671,-0.02018364,-0.03117677
-0.02237457,-0.03937003,-0.02660171
0.02402849,-0.011500100000000001,-0.008347537
-0.003777141,-2.4776439999999998e-05,-0.01472947
0.02182358,0.02081531,-0.01370058
0.02813331,0.001294337,5.1722159999999995e-05
0.04164548,0.03815708,0.01249278
-0.0009184887,0.037691300000000004,-0.01376784
0.01740914,0.03811728,-0.004733175
0.033302,-0.009044793,0.01570797
0.0057456040000000005,-0.02799513,0.03385794
-0.00812695,-0.03931624,-0.01088757
-0.03427042,-0.06636039999999999,-0.008091467
-0.003403228,-0.04498507,0.01732168
0.01825935,-0.01474963,0.0008348145
0.0226078,-0.04774053,0.01351545
-0.023499799999999998,-0.03692237,-0.0054896780000000004
-0.02448251,-0.0151631,-0.007080227
-0.01790382,0.01617667,-0.0158179
0.01016237,0.009812525,0.001406669
-0.009775291,-0.02159392,0.007071559
0.006706295,-0.05883452,0.03516162
0.02551436,0.007048443000000001,0.03002866
0.02984711,-0.03384733,0.006961859
-0.04398647,-0.0014565479999999998,-0.00633234
-0.02354429,0.051768499999999995,-0.02967312
0.007027803000000001,0.05066245,0.01136437
-0.03023938,0.02073109,-0.04114563
0.0205309,-0.004511173,-0.0034721229999999997
0.04458052,0.02414465,-0.02623714
-0.01370823,-0.06442502,-0.03314377
0.01330629,0.02214169,-0.06005932
-0.01282901,-0.05850328,-0.04428288
-0.01123261,-0.10080360000000001,-0.02489751
0.01261033,-0.04520808,-0.006036
0.01074586,-0.05636201,0.01196367
-0.0039726679999999995,-0.01562605,0.02906248
0.01889562,0.03560181,0.02545407
-0.02102585,0.03323612,-0.008113039
-0.00035548139999999997,0.0465171,-0.02017879
0.005403011,0.03551422,0.0046957959999999995
-0.01104066,0.04121057,0.003602456
-0.03051814,-0.03629826,0.015180500000000001
0.005528618000000001,-0.014955600000000001,0.005828465
-0.04426494,-0.06150606,0.013638399999999998
-0.04217471,-0.06730454,0.01091527
0.02029005,-0.05147167,0.03991889
-0.02123399,-0.06844806,0.04524081
-1.665973e-05,-0.0480495,0.01671573
0.024562,-0.02804054,0.01644116
-0.04799146,-0.008608902,-0.03027343
0.006805535,0.008666327,0.004293655
0.01440842,0.05175903,0.002235862
-0.007826209,-0.01955773,0.03879572
0.02044061,0.0007498208000000001,0.04959648
-0.02890052,-0.05193442,0.0028626959999999996
-0.02342144,-0.04281241,-0.001135078
-0.0029103420000000002,-0.04145892,0.005564689
0.02880891,-0.03275251,0.02642726
0.02780143,-0.057666999999999996,0.02553741
0.006624563000000001,-0.01254467,0.01716096
-0.02746954,-0.008807394,-0.009419218
0.006116016,-0.04141859,0.02556301
-0.01831719,0.0028860490000000003,-0.01907119
-0.01947303,-0.04089642,-0.0044983290000000006
-0.01325169,-0.04762269,-0.01342152
0.01162113,-0.04341484,0.007121361
-0.0017062129999999998,-0.01807394,-0.01781225
0.04155038,-0.0256138,0.002669997
0.06044708,-0.01149712,0.01147937
0.04202033,0.01801976,0.02067407
0.03446059,0.04303587,0.003250367
-0.01101954,0.046368400000000004,-0.008035693
-0.0036534059999999997,-0.004250932,-0.006136043000000001
-0.003793158,-0.0364989,0.001846174
0.01378567,-0.020257499999999998,0.02126576
-0.01007214,-0.00144812,-0.007040168
0.007791634,-0.03761898,-0.008851833
0.02033683,-0.03457427,0.005331152
-0.0052193909999999994,-0.09484621,0.0009675914
0.01275199,-0.0017372370000000002,0.03110277
-0.01432677,-0.0189529,0.02011193
-0.03975767,0.03187779,-0.04721213
-0.02338515,-0.01257379,-0.0029598370000000003
0.007646989,0.02389009,-0.00260534
0.007057739,-0.0438154,0.03371444
-0.004316297,-0.01619154,0.01097102
-0.03999093,-0.01904446,0.002464704
-0.05275001,-0.09364636,-0.001708753
-0.03737933,-0.10787100000000001,-0.01374781
-0.04779625,-0.05723808,-0.009176553
-0.01044219,-0.0306372,-0.007956731
0.03930957,0.05495281,0.03911222
-0.0066963759999999995,0.08346291,0.02371323
-0.007990274,0.05540894,0.001664868
0.02480484,0.05998452,-0.006438409
-0.007517974,-0.01095059,-0.02909111
0.01492482,-0.001149633,-0.02131248
0.02064632,-0.05727598,0.01128311
-0.02417343,-0.04139803,-0.0416233
-0.02435032,-0.04684818,-0.06386559
0.01308954,-0.0118473,-0.01580744
0.02099937,0.02677243,-0.003761848
-0.004204642,0.024174400000000002,0.01612081
0.002072219,0.03858871,0.05781016
-0.03201879,0.03528869,0.01409174
0.001620028,0.03576175,0.03790348
-0.03631328,0.03603872,-8.626189e-05
0.02162473,0.028428,-0.002122571
-9.697769e-05,0.06237281,-0.01396135
0.003957737,0.02858884,-0.00550418
-0.009653994,0.02839084,0.04118457
-0.04328078,0.005984865,0.0089439
-0.04159837,-0.01623304,0.009888496
-0.04589087,-0.007217094,-0.05072034
-0.02307569,0.01595938,-0.007041935
0.02049846,0.02702793,-0.01852652
0.02282627,-0.30549390000000004,0.08298764
0.05645428,-0.04817262,0.01530444
-0.08629411,0.07029907,0.03498916
-0.09978939999999999,-0.02814916,-0.00194306
-0.001124814,-0.1005718,0.02070017
0.01480757,-0.19682360000000002,0.04722327
0.02576388,-0.1743865,-0.002529549
-0.04014307,-0.1217633,0.04148551
-0.0281776,-0.07384252,-0.02860573
-0.03137393,-0.05298949,-0.02824041
-0.03372893,-0.13921340000000001,-0.0006413984
0.01778745,-0.12083410000000001,-0.027601499999999998
-0.04601445,-0.1430257,-0.05409915
0.05189103,-0.07448865,-0.01900453
0.02019139,-0.06754168,-0.07193977
-0.06424254,-0.17462550000000002,-0.1733959
-0.07083298,0.0002162009,-0.1380803
-0.0035943359999999996,0.13045739999999997,-0.0369284
0.06534633,0.200776,0.1500082
0.09616174,0.21250650000000001,0.2220904
0.08979111,0.20500279999999999,0.1323579
-0.005322812,0.09941708,0.06152861
-0.02657671,-0.009333291,-0.10855530000000001
0.02718002,-0.1125825,-0.09862065
0.03552268,-0.1496336,-0.07967313
0.01434594,-0.03906848,-0.09780252
-0.003598069,-0.03052018,-0.02092575
0.06833392,-0.05552313,0.03256844
0.03619628,-0.09323503,0.046116199999999996
-0.0007017319,-0.05024721,0.006742144
0.021209400000000003,-0.009150124,0.004822205
0.03287673,0.001630016,0.02830222
0.0607992,0.06443731,0.01931198
0.01150561,0.09101993,-0.02394704
0.05183859,0.06163815,0.009948577
0.02002897,-0.01073734,0.0220482
0.01787504,-0.06137197,0.007042512
0.04538706,-0.05382216,0.0405071
0.0063156209999999996,-0.01619342,-0.02316464
0.05718696,0.01435996,0.02219315
0.03764027,0.03561932,0.01354857
0.0391481,0.02782814,-0.0211364
0.05146106,0.03150701,0.006330550999999999
0.02238536,0.04141898,-0.04082637
0.02548758,0.0433833,-0.04759897
0.04808017,-0.03461382,-0.04090182
0.05306634,0.01537173,-0.02793935
-0.01661568,-0.004588557,-0.05030318
-0.027825400000000004,0.02954405,-0.06980595
-0.06983164,-0.01093498,-0.01300719
-0.07307516,-0.01489577,-0.006281635
-0.03305697,-0.04276899,0.02442563
-0.0327571,-0.03791792,0.04047752
-0.03450613,-0.02796703,0.008680448
-0.1090389,-0.05961034,0.005298565
-0.01793041,0.0054754109999999995,0.07553014
-0.06195685,-0.03478437,0.02519204
-0.10702260000000001,-0.05160188,0.01796952
-0.05416991,0.0186205,0.008013504
-0.04225261,-0.11847089999999999,0.01362378
-0.04225318,-0.12066189999999999,0.02513397
0.01350102,-0.08135279,0.02367818
-0.01001143,-0.01874471,0.002192354
0.04014424,-0.009658126999999999,0.03238885
0.003049245,0.01230999,-0.007247292
0.02587784,0.00569021,0.001425037
0.02878008,0.02026081,0.009281028
-0.02368863,0.05202859,-0.0184337
-0.02854055,0.03670458,-0.02839957
-0.004697899,-0.0167,-0.01264851
0.03245066,-0.03035048,-0.00817529
-0.01485992,-0.02207337,-0.02059283
-0.04758747,-0.01960347,-0.06876063
-0.01105939,-0.02853323,-0.0203098
-0.03847101,-0.06515105,-0.006729000000000001
0.03744732,-0.067084,0.0008937328
0.0100456,-0.00932169,-0.02768288
0.02350211,-0.04178886,-0.04124658
0.0060522219999999995,-0.02931711,-0.01489412
0.01422356,-0.02878848,-0.01570229
-0.02875149,-0.036221300000000005,-0.01774273
0.05638968,0.008481431,-0.0002818764
0.03284515,-0.0017506779999999999,0.004999482
0.02501902,0.02297664,-0.007808441
0.02952879,-0.0058455,0.005596032
0.05294278,-0.0022319320000000003,-0.0021387579999999997
0.06561609,-0.02065573,0.03886719
0.04723073,0.04594004,0.004419954
0.05839755,0.03656075,0.01810106
0.04448728,0.007785663000000001,0.03159943
0.04769563,0.02309056,0.03175589
0.05716757,0.01321013,0.02894126
-0.0002609221,-0.04878477,0.03408361
0.04431001,-0.02460771,0.03047796
0.01248649,-0.05304095,0.01502733
-0.006163711999999999,-0.02782873,0.008364881999999999
0.004283913,-0.03685135,0.0195449
-0.01134985,0.01977974,-0.007180594
-0.0159816,-0.02698335,-0.0024148060000000002
-0.03254821,-0.06910908,0.0352253
-0.01934665,-0.06055409999999999,0.04398294
-0.02941918,-0.05954475,0.02023827
-0.008864785,-0.06313495,0.007922535
0.004738406,-0.04690801,0.02850157
0.0046159370000000005,-0.02369598,0.03642813
-0.03919838,0.0074629069999999995,-0.01549201
-0.02028527,-0.009884963,0.03243556
-0.0007293145,-0.003916545,0.02696814
0.016533900000000004,-0.03468919,0.01412277
0.01214608,-0.0259733,-5.4028000000000005e-05
-0.006489091999999999,-0.05388105,-0.03267866
0.00408394,-0.01437173,-0.01937127
0.008804273,0.009870275,0.02404467
-0.0025891729999999997,-0.003760861,-0.01234305
0.001836355,0.03817371,-0.02813402
0.03250824,-0.04491772,0.004571684
0.01310865,-0.03953518,-0.03491939
0.01375724,0.0018253310000000001,-0.004565535999999999
-0.03074297,0.029895599999999994,-0.02144297
-0.0017458060000000001,0.09025493,-0.004302945999999999
0.0246928,0.05258337,-0.002535622
0.01889312,0.01485176,0.0002101664
0.03320486,0.03104904,0.02283503
0.02546811,-0.01972333,0.03642983
-0.02230513,-0.02407243,-0.03535931
-0.04527617,-0.05799017,-0.03745869
-0.01944301,-0.0118791,-0.01592873
-0.0321361,-0.05047769,-0.01688476
-0.019512599999999998,-0.10444949999999999,-0.008499837
-0.004004812,-0.04828418,-0.004807327
-0.02865724,-0.0081323,-0.02219507
-0.02126241,0.01386447,-0.01460006
-0.003804956,0.002102661,0.003213583
-0.01121876,0.001570765,0.03424664
-0.025751299999999998,0.01446851,-0.008298505
0.01513768,0.003198888,0.01581676
-0.03795419,-0.03273405,-0.03226391
-0.02293674,-0.04009097,-0.008880347
-0.01279767,-0.01239248,-0.01835077
-0.03801492,-0.04680611,0.01327081
-0.02940387,-0.01523249,-0.01458168
0.03220055,0.005173196,0.04389075
-0.008302852,-0.04727946,0.02203842
0.01203705,-0.02396389,0.001053911
0.02346803,-0.02983063,-0.0031257159999999997
-0.0226965,-0.02132423,-0.05130282
-0.007845312,-0.00457333,-0.04994426
-0.02192193,-0.008579845,-0.03485287
-0.0344978,-0.04511965,0.01555577
-0.01963729,-0.0043352059999999994,-0.01574291
-0.04871804,-0.03860174,0.00631965
-0.007778551,0.0017218910000000001,0.02665033
0.01928356,-0.03012974,0.02818539
-0.0032064059999999998,0.007941264,0.01562605
-0.002984618,-0.008586241,0.01079581
-0.01033946,-0.03587475,-0.003078855
0.007281449000000001,-0.0259139,0.02751073
-0.03103864,-0.02624164,-0.04277354
0.04189469,0.02489735,0.01817149
-0.04763143,-0.005380792,-0.03093381
0.006118231,-0.05615431,0.01271062
0.00676581,-0.05664883,0.027589699999999998
-0.03442873,-0.00494117,-0.01332669
-0.02198217,-0.04884371,0.03221308
-0.01920742,-0.05815367,0.02150878
0.002028304,-0.01060548,0.005529603
0.04863507,0.02710986,0.02396441
0.02539355,0.03842101,0.009818148
-0.04829535,0.06852323,-0.04187468
-0.02734041,0.01380952,-0.02652828
0.03475536,-0.010838200000000001,-0.01278778
0.0039330829999999995,-0.02490384,-0.04799938
0.007124416,-0.03230996,-0.05746506
0.01164545,-0.05643973,-0.03517943
0.009607471999999999,-0.03574151,-0.02832551
-0.01574383,0.04430874,-0.03707799
0.04363322,0.01959324,0.01035513
0.006861018000000001,-0.02769598,0.0026962320000000002
0.005428735,-0.04405988,-0.005559657
0.03105209,-0.01664463,0.007476713
0.008095197,0.005341131999999999,0.01312786
-0.03241774,-0.03220582,0.01651057
0.01489221,0.01692558,0.01579436
0.03945653,-0.01181739,0.03435465
-0.02268449,-0.01935488,0.005711885
-0.01950215,0.03234514,-0.01408264
-0.01423529,-0.004061344000000001,0.02961878
-0.007259631,-0.03424614,0.03481453
0.005224041,-0.02413929,0.001708359
0.01379674,-0.06249727,0.01981375
0.002544516,-0.01675935,0.002188435
0.005790332,-0.03748428,0.01235677
0.0002704128,-0.01486188,-0.02375896
-0.003371103,-0.03726821,0.02771064
-0.007439871,-0.0173416,0.03155579
0.0016012,-0.001014793,0.01267173
-0.04539943,-0.04217803,0.02670184
0.006346415,0.01876503,0.01098178
0.02130163,0.01996393,0.01532543
0.03333422,0.01693021,0.006371065
0.001954086,-0.008238615,-0.01704003
0.03191057,-0.004854377,0.0229672
-0.0345194,-0.04121277,-0.03822473
0.0015965760000000002,-0.03837272,0.01581641
0.01641721,-0.04106079,0.02616889
-0.026466000000000003,-0.01494486,-0.004774173
-0.02288224,-0.05834019,-0.01331432
-0.0007956914999999999,-0.04882497,-0.02278539
-0.00559649,0.02237302,-0.04331957
0.0074543859999999995,-0.01393145,-0.019469
0.01602118,0.01592956,-0.01629776
-0.009379766999999999,-0.019182499999999998,-0.007934151
0.03215143,-0.004458351,0.01290478
-0.01644637,-0.02594919,-0.0001470725
0.01582893,-0.01888431,0.0007436551
0.02898039,0.00035315849999999996,0.03415468
-0.0005348423,0.02657744,0.0233673
-0.01317656,-0.01074654,-0.004989388
0.0001322236,0.006750987,0.0005722438
-0.03549646,-0.04511717,-0.01683158
0.01448268,-0.02056986,0.02491727
0.0238271,0.01457654,-0.01653601
0.03604239,-0.008751057,0.004232248
-0.001802483,-0.01425049,-0.007186466999999999
-0.04981979,-0.03344517,-0.03267745
-0.01098862,-0.04958487,0.03396272
-0.022229099999999998,-0.01337364,0.04442354
-0.03963416,-0.009721162,0.008367767
-0.02710542,0.0005778521,-0.02132251
-0.008750547,-0.03633958,0.01182272
0.006633384,0.02028592,0.03959611
0.01329965,0.03802653,-0.0035224
-0.05369083,-0.02954021,-0.05813733
-0.01598078,-0.02228901,-0.05496112
0.01571513,-0.04729428,-0.02964746
0.01390719,-0.047689300000000004,-0.03928091
0.02466787,0.0008039509,-0.03688343
-0.03228126,-0.00998562,-0.06155806
-0.01316627,-0.02085239,-0.02376471
0.02396424,0.009439537,-0.01848006
0.004633714000000001,-0.018515,-0.01546948
0.02371675,-0.04464374,0.01484099
0.00874407,0.01219737,-0.0195375
-0.01866823,-0.002875364,-0.02833463
0.03240989,0.03327164,0.02493456
0.002915536,0.02417529,0.02668845
0.001350448,-0.03223143,0.01385322
0.02029785,-0.01863572,0.02097426
0.002851498,-0.06706404,0.0304539
-0.0159797,-0.04700907,0.01927426
-0.00340107,0.0164619,-0.004398796
0.024774400000000002,-0.02510985,0.0227636
0.005808284,-0.0325254,-0.0006259214
9.815363000000001e-05,-0.02282985,-0.0030425929999999997
0.001326915,-0.0006196685,0.001386979
-0.01280971,0.02515331,-0.02390493
0.004181945,0.0006098328,-0.0008107867999999999
-0.01176379,-0.0006699989999999999,-0.001233119
0.02631782,-0.04676451,0.04278502
0.01297523,0.02007517,0.007306095
-0.01827223,-0.006540729,-0.02838521
0.001867693,-0.0356417,0.02582256
-0.01566416,-0.02868232,-0.009499559
-0.04529907,-0.003106181,-0.02067045
-0.01857577,0.03096914,-0.02591728
-0.03373784,-0.01284016,-0.01810076
-0.03972967,-0.013378799999999998,-0.04002857
0.01439557,-0.03131921,-0.00393389
-0.006599869,-0.03944205,-0.01488888
0.03740479,-0.01919268,-0.01186668
-0.02371536,-0.05254485,-0.03085103
0.01283675,-0.04455354,0.01692966
0.01083545,-0.01383542,-0.008770784
-0.0029273159999999997,-0.03153979,-0.00304733
0.02410322,0.01118464,0.004392716
-6.193411999999999e-06,0.0474749,0.01100091
-0.03518801,0.0065036009999999995,0.003033816
0.0176739,0.04004591,0.01572331
-0.004605006,0.01001594,0.01013186
0.01167473,-0.03714358,0.01289849
0.03405355,-0.01958261,0.03482318
0.02181373,0.0005807243,0.008226424
-0.005116847,-0.07447201,0.0005955216
0.02124869,-0.01001659,0.02227947
-0.02051686,-0.05039628,0.01696501
-0.03336191,-0.05328539,-0.002313896
-0.02412004,-0.02642114,0.00750047
0.02878882,-0.001196407,0.03005267
0.0007653076,0.03015042,-0.01440815
-0.005953183000000001,-0.002132507,0.006741255
-0.01801391,0.002461987,-0.02514826
0.006818353,0.01636902,-0.02108731
0.01274532,0.02874843,-0.04453896
0.01951878,0.02263319,-0.03889848
0.0014540070000000002,-0.02830482,-0.05584069
0.01647212,-0.01481626,-0.03424507
0.04344696,0.01157745,-0.04568158
-0.03152069,-0.01356698,-0.05267465
0.02132881,-0.01459623,0.009900967
-0.02473504,-0.0743135,0.00743224
-0.0014254670000000001,-0.009432824,0.00021732959999999998
-0.0022807120000000003,0.02474328,-0.005021411
-0.002119736,-0.02590783,0.002439958
-0.01248934,-0.003205687,0.00692468
-0.01752487,-0.03067742,-0.01827193
-0.02054333,-0.029826099999999998,-0.01464205
-0.03641165,-0.01798239,-0.01119801
0.01704751,-0.04969499,-0.006272956999999999
0.03200713,-0.05236016,0.03537028
0.006515669,0.03640869,0.01491658
0.005821548,0.05463874,0.02405874
-0.01420605,-0.003738742,-0.007957297
-0.01084523,0.08612052,-0.03157768
0.009440403,0.1616237,-0.03776114
0.02642428,0.06422652,0.03209771
0.08516505,0.08412501,0.03352902
0.09029783,0.02801497,-0.05060567
0.09841453,-0.03079671,-0.009157728
0.09624647,-0.001801801,-0.004146824
0.04246025,0.1621161,-0.003565118
-0.01805727,0.1459557,0.003129116
-0.0062442140000000005,0.1232397,0.03400045
0.001302852,0.08574925,0.006701244
0.03297392,-0.03818699,0.03196342
-0.01604136,-0.08328541,0.02466333
-0.06200907,-0.1185836,0.01789677
-0.07749709,-0.10884210000000001,0.037624
-0.07131079,-0.2874952,0.04920822
-0.06504064,-0.3274387,0.0053858330000000005
-0.01367134,-0.33710559999999995,-0.01831228
-0.05916979,-0.2233234,-0.04015282
-0.08131389,-0.1552723,-0.04535202
-0.0402707,0.10563499999999999,0.0967031
-0.05653827,0.1819334,0.03331652
-0.05646932,0.2276104,-0.04279689
-0.08959641,-0.01334686,0.044901800000000006
0.01208539,-0.038422500000000005,-0.01770464
0.05503009999999999,-0.1185766,-0.0035059920000000003
0.004037374,-0.1007826,-0.02176517
0.01732999,0.019224099999999997,-0.03520731
-0.07000867,-0.02281709,0.03001208
-0.01525217,-0.02624561,0.0171601
-0.003517764,-0.06062897,0.03753121
-0.04107505,-0.06377483,0.05183791
0.02698238,-0.01043698,0.1364404
0.07173612,0.10575739999999999,0.02444199
-0.1122163,0.1473094,-0.09018128
-0.1603483,-0.006267644,-0.09757273
0.06172149,0.05344621,0.08308173
-0.01766939,0.02952345,-0.01803737
-0.07081675,-0.01914649,-0.03490103
-0.08339963,-0.01048261,-0.03874980000000001
-0.02845659,-0.02602726,-0.01723245
-0.023262400000000003,-0.1256758,-0.01271863
-0.02563352,-0.20234929999999998,-0.02528515
0.0112895,-0.12700219999999998,0.009761228
-0.07104141,-0.08864582,-0.02185648
-0.04055219,-0.00569994,-0.05778994
-0.007722266,-0.001184845,-0.01936878
0.03264524,0.07330187,-0.02268997
0.02838445,0.06803945,-0.007460156999999999
0.07604092,0.01001388,0.010976999999999999
0.06096078,0.05230487,-0.01151837
0.08217129,0.08211324,-0.01439444
0.06036192,-0.09833182,0.008570346
0.0401321,-0.1048895,-0.03917355
0.0947658,0.04986453,0.002193571
0.03527988,0.1028876,0.0302666
-0.004372927,0.02496887,-0.002606093
0.09770636,-0.08593968,-0.03337041
0.1035133,-0.03517058,-0.03623278
0.003057114,0.12701189999999998,0.01953555
0.02296128,0.08215119,-0.01654751
0.01775669,-0.09019692,-0.02018753
0.09012689,-0.05169908,0.01364719
0.02533974,0.03924078,0.0032665890000000003
0.01237918,0.10547750000000002,-0.04058519
0.02450312,0.01121646,0.03850221
-0.004794602,-0.08716952,0.009275545999999999
-0.00539698,0.07154249,-0.06732533
-0.05316049,0.1118799,-0.02195919
-0.050473699999999996,0.06873085,-0.01756333
-0.01976653,-0.01420986,-0.04170987
-0.00791852,-0.1389215,-0.054147
0.04106051,0.01397691,-0.05002585
-0.02800269,0.05628590000000001,-0.0184019
0.05632414,0.001616523,0.05144167
0.01426941,-0.11703859999999999,0.0037461070000000003
0.06685988,-0.02179147,0.02632102
0.009243069,-0.01973868,0.003345951
0.01752826,0.009115342,-0.00034398519999999995
0.01771581,-0.001781665,0.01249131
-0.05334069,-0.05702051,-0.018554400000000002
-0.02712516,-0.04336052,0.01180753
-0.06510259,-0.1148366,-0.01696653
-0.02567528,-0.1481191,-0.02248264
-0.02544164,0.08923295,-0.03336192
-0.06593689,0.1027878,-0.01636424
-0.03318309,0.1681341,-0.01643941
-0.031761700000000004,0.0591962,-0.05615727
-0.01388599,-0.1116522,-0.04375757
0.03360922,-0.02083193,-0.02856886
0.01081717,0.006262384,-0.024149700000000003
0.06341756,0.03431394,-0.01289939
0.04580617,-0.03038098,0.006361063
0.0538658,-0.05868519,0.02397379
0.02277009,-0.02101701,-0.004109598
0.05164199999999999,-0.0377513,0.01609262
-0.01235757,-0.11795730000000001,0.01217693
0.002588476,-0.1544459,0.02928811
-0.008618427,-0.1389901,0.02662423
-0.009793855,-0.0590177,0.03407037
-0.03710718,0.04901325,0.03809648
-0.014355600000000001,0.02058624,0.07040638
-0.04597514,0.0046962720000000005,0.05434728
-0.01590949,0.03188552,0.06054373
-0.006265336999999999,-0.01736495,0.06534214
-0.03897157,0.02430963,0.04239165
-0.01142815,-0.005148783,0.045251599999999996
-0.04647045,0.01660666,0.008281512
-0.03680639,-0.044585,0.00920275
-0.0031642909999999996,-0.05671826,0.008523861
-0.0369683,-0.05038076,0.003594146
0.005022898,-0.06410465,0.05154972
0.002268987,-0.06621958,0.01850966
-0.03486172,0.007744323000000001,-0.007973991
-0.0105553,-0.05695216,0.03109672
0.03086382,0.05850213,0.03999927
-0.03309135,0.02100233,0.05098447
-0.009527331,0.0025496670000000003,0.05426985
-0.06791681,-0.008790083,0.01777882
-0.01690001,-0.04505493,0.02832095
0.01491698,-0.10680519999999999,0.06161826
0.02177996,-0.03871518,0.03970659
0.04062526,-0.06873762,0.00475208
-0.005265823,-0.04559037,0.02169089
-0.02879369,-0.06868494,-0.01178715
0.003323453,-0.0019418929999999999,-0.02299221
-0.001077328,-0.02980305,-0.03368273
-0.0217139,0.01910031,-0.0693238
-0.01702753,-0.02271828,-0.06450825
0.00529037,-0.02685677,-0.02969402
0.07970985,-0.01440847,-0.03337025
0.058762,-0.0487027,-0.052287099999999996
0.03304927,-0.009501494000000001,-0.05829966
0.03524097,-0.01797211,-0.04895194
0.08262746,0.04266483,0.001917719
0.03958697,0.02901562,-0.003619323
0.02579408,0.04673054,0.02692644
0.01345803,0.04337528,0.003975259
0.0188833,0.02436502,0.0048335240000000005
0.008420096,-0.01702978,-0.002561652
-0.02182463,-0.0766018,-0.01775908
-0.003622605,-0.07407688,-0.00663627
-0.018580000000000003,-0.02356157,-0.027138
-0.01250026,-0.06202280000000001,0.03392136
-0.005614457,0.007684663,0.01156963
-0.0098424,0.002700225,-0.01771588
-0.01515007,0.03998933,0.005624071
-0.04982269,0.001008667,0.006340777
-0.003397667,-0.01181501,0.02235589
-0.07379069,-0.05289044,-0.01724533
-0.02151227,-0.05568559,-0.02661468
-0.01276799,-0.022878700000000002,-0.03794599
-0.01427601,-0.03561264,-0.03702098
-0.03935551,-0.03046191,-0.03128917
-0.02193414,-0.03050616,-0.01832273
-0.06176946,-0.03328529,-0.02688712
-0.04886206,-0.04889935,-0.006888349
0.00948707,-0.002425412,0.01703796
-0.01355892,-0.03626087,0.01272672
-0.0007615649,0.04402902,0.01017249
-0.04307956,0.05054624,-0.01271606
-0.0165475,0.0436142,0.04001576
-0.05355676,0.0012396780000000001,-0.001866219
-0.01345285,-0.01737704,0.02133605
-0.01057956,0.0117809,0.02406863
0.0021172310000000002,-0.0034691059999999996,0.04725625
0.0004985326,-0.008693244000000001,0.02738182
-0.01343804,-0.04092286,0.01604052
-0.04076092,-0.02862466,-0.02630429
0.00138526,-0.02565605,0.0056616159999999995
-0.01370836,-0.07509823,0.006240685
0.007568645,0.002678709,-0.01930169
0.02191081,-0.003331539,-0.01548608
0.02134823,-0.04440721,0.03021817
-0.002072218,-0.01508622,-0.008827438
-0.02205746,0.01499245,-0.0273312
-0.001140413,0.01633165,-0.01464878
-0.01047547,0.02713506,-0.01506946
0.003950995,0.03138492,-0.04532314
0.02368746,-0.01211048,0.02023935
0.03496981,0.003564397,-0.007222281
0.02726427,0.0136857,-0.031066800000000002
-0.006581356,-0.02820327,-0.05923586
0.0259858,0.006730935,-0.02381254
-0.03066226,-0.01584335,-0.06454477
0.0109117,0.012918100000000002,-0.04365912
0.01835325,0.02039873,-0.05369783
0.05700316,0.02019322,-0.001956953
0.04365694,0.02746169,-0.006758622
0.01791943,0.02593866,-0.03318369
0.05796088,0.04419678,-0.01706434
0.03438853,0.005319466,-0.0018366020000000001
-0.0075400630000000005,0.01828244,-0.04003668
