Acc_x,Acc_y,Acc_z
-0.01793622,-0.06305502,-0.007620258
0.01961805,-0.002036369,0.01972859
0.03563805,0.01813137,0.019331
0.05293871,0.01248433,0.03314994
0.006457981999999999,0.01608459,0.01806157
-0.02042049,0.009602789,-0.006170445
-0.01774752,0.01590099,-0.022977599999999997
-0.003863977,0.0031263529999999997,-0.03087161
0.02296121,-0.01916162,0.00606279
-0.0027460809999999996,-0.009237126,-0.03194813
-0.005733221,-0.03384053,-0.01240117
-0.02153841,0.02800325,-0.03030526
-0.007016471999999999,0.06136491,-0.009356335
0.002047151,0.06599542,0.002081445
-0.01037427,-0.01500906,0.03082427
0.01024329,-0.04683393,-0.008767089
0.02775712,0.0003558025,-0.02328947
0.06023034,-0.08070029,0.02181157
0.01418221,-0.05513698,-0.0016940000000000002
0.006008006999999999,-0.05221666,0.01474983
-0.02647808,-0.03758353,-0.01457892
-0.02044287,-0.02927476,-0.01830378
-0.05131473,-0.04030938,-0.02060132
-0.03491788,-0.02646215,0.008192322
-0.03973469,-0.04379817,-0.01976326
-0.05029369,-0.05936579,0.02938392
-0.03037201,-0.04770339,0.02698396
-0.02761602,-0.0687829,-0.00973448
-0.01005417,0.005906499999999999,-0.00984094
-0.04193288,0.0006507635,0.01353603
-0.03013501,0.004008613,0.02465367
-0.008435085,-0.008961431,0.02402754
-0.05124783,-0.05090742,-0.008049261
0.01111045,-0.04118787,-0.01354528
-0.03269537,-0.002422482,-0.06858422
0.006765439,-0.01831867,-0.01560322
-0.03302263,-0.03281195,-0.02616044
-0.003936881,-0.03460691,-0.015009200000000002
0.0002720545,-0.04460534,0.00759456
-0.0009965223,-0.03158658,0.0001851041
-0.002128061,-0.02679752,-0.0001470029
0.05148102,-0.01709663,0.04271385
0.03104454,0.02824197,0.02579425
0.02088533,0.003521178,0.03864665
-0.01916134,-0.003959063,0.03469564
-0.002977535,-0.04179443,0.01459788
0.01431653,-0.01171267,-0.009450186
-0.02674126,-0.007903973,0.0032477079999999998
-0.007086352,-0.02722432,0.0062568780000000004
0.05296363,-0.0420524,0.03439431
0.002470549,-0.06299685,-0.008712999
-0.01196953,-0.0287265,-0.03101289
0.01622998,-0.02559707,-0.007486321
0.007994488000000001,-0.009572703,0.001241995
0.007032755,-0.02067086,0.01288912
-0.009803769,-0.006191876,-0.0009054305
0.03653318,-0.011254799999999999,0.02396281
-0.007970753,-0.01785258,0.006035149
-0.002123721,0.0054482540000000005,0.007560203000000001
0.0071854269999999994,-0.03265065,0.02040543
-0.001916415,-0.03701331,-0.006262958000000001
-0.03667103,-0.008946535,-0.02344166
-0.006114425,-0.0311445,-0.007574429000000001
0.007686201,-0.08979391,0.03454886
-0.007932979,-0.02999657,0.00184003
0.01375406,-0.02611702,0.003643351
-0.009530714000000001,0.009327115,-0.01870249
-0.0162336,0.03597622,-0.02277284
0.006389545,0.02725597,-0.002517966
-0.01357413,-0.008411568000000001,-0.02785186
0.02559263,-0.02870826,0.004575098
0.01969258,-0.03178152,-0.0061422230000000005
0.008307096,-0.02248169,0.004279435
-0.02136584,-0.01633849,-0.01624698
-0.0207853,0.03460678,-0.02811013
0.01684192,0.005225481,-0.006595086
0.01147828,-0.01240038,0.03151847
0.01156926,0.02172383,0.01086788
-0.02196109,-0.01666341,-0.01098936
0.002722702,-0.01762979,0.008493319000000001
0.003992583,-0.03602279,0.01474119
-0.04769491,-0.05126002,-0.002376546
-0.006443899,-0.03831111,0.009657284
-0.02895163,-0.061065499999999995,-0.01220499
0.01897197,-0.03208582,0.008079489
-0.03707231,-0.02761631,-0.003615888
-0.02606675,-0.04740288,-0.01949034
-0.04894402,-0.05736193,-0.04767344
0.0145405,-0.08285936,0.02069037
0.0013333020000000002,-0.04538828,0.003013827
-0.03343385,0.01533438,-0.006442869
-0.02692001,0.0123983,-0.0306186
0.01603284,0.02838067,0.02230528
0.02805473,0.01961109,-0.005853593000000001
0.02634017,0.01011998,0.02401172
-0.003129256,-0.0005735718,-0.004197237
0.02912837,0.07262393,-0.004000004000000001
0.03449364,0.02679995,0.015528799999999999
0.02562215,-0.005598540999999999,0.00041969209999999997
0.03569472,0.06304479,0.01532368
0.05095052,0.06142803,0.008455635
0.05236232,0.01157256,0.01521045
0.03427736,-0.008945436,-0.01571526
0.02195133,0.006631158000000001,-0.01705895
-0.01604727,-0.05656083,-0.006322416
0.01700275,-0.02899269,-0.003887943
0.0329039,-0.02568763,-0.02643722
-0.0110666,-0.0441646,-0.03017402
0.02808803,-0.006666645,-0.005184775
-0.005527095,-0.05232692,-0.03035991
0.03018004,-0.007616404,0.0012363810000000002
-0.004022639000000001,-0.03826093,-0.0014230170000000002
0.03624229,-0.001825773,0.006075945
-0.004191493,-0.03539246,0.01401563
0.0371856,0.003465962,0.02939549
0.030983999999999998,0.01773744,0.01061366
-0.04128603,-0.01640826,-0.020934099999999997
-0.03978714,0.05196895,-0.03999795
-0.01865255,0.01268649,-0.01963242
-0.01253629,-0.007511664,-0.004953695
0.04184037,-0.009627028000000001,0.02550519
-0.02042073,-0.06977792,-0.01360833
0.02033556,-0.04118687,0.01999767
-0.02640117,-0.02481005,0.01855167
-0.02512869,0.00021954720000000002,0.01457234
-0.044062199999999996,0.01033595,-0.01490787
-0.08411175,-0.03815512,-0.01328088
-0.03091814,-0.01819809,0.007720907
-0.01217805,-0.0033457990000000004,0.0056962359999999995
-0.02904901,-0.00639301,0.006324936
-0.04045142,-0.02254056,-0.01341525
-0.04515069,-0.06770904,-0.028161099999999998
-0.04083983,-0.06322866,0.01867348
-0.02139821,-0.01297196,0.01258492
-0.02119242,0.003431105,-0.01649642
-0.009053104000000001,-0.01064071,-0.02102854
-0.006760019,-0.01600612,0.007500596
-0.01051077,-0.01518393,-0.01625012
-0.01793969,-0.01535611,-0.02406153
-0.03929728,-0.01527661,-0.05419373
0.01739493,0.02052426,-0.0236333
-0.01800519,-0.04953545,-0.03084014
-0.004548506,-0.01079192,-0.03165587
0.02593627,-0.009494864,-0.02190349
0.07194537,-0.006468873000000001,0.02266059
0.03745098,0.04998438,0.004136344
0.04872743,0.04272104,0.02110439
0.03111011,0.02771182,-0.03717998
0.03253994,-0.01457865,-0.01866025
0.05603268,0.005002668,0.02156162
0.01882915,0.02561521,-0.01943422
0.04562636,0.03074316,0.00201807
-0.004703302,0.02824975,-0.03237208
0.008105531,-0.07789659,-0.00546763
0.04247297,-0.01278992,-0.0052665509999999995
0.01049953,0.0023903920000000003,2.8660749999999998e-05
0.02030567,0.08606981,0.03394125
-0.01934247,0.01506275,0.005640943000000001
-0.01381424,-0.00428852,-0.00959293
-0.02477463,-0.02924689,-0.01804357
0.005634854,-0.06926247,0.01118202
0.01821306,-0.07301486,0.03579643
-0.009166919,-0.001584758,0.0370977
0.002844997,-0.0008695441999999999,0.01824505
0.0377676,0.07005125,0.06626726
-0.009996623,0.0674722,-0.0071221340000000005
0.01964175,-0.02801657,0.00432654
0.02238352,-0.02267283,-0.02578899
0.02823564,0.01382772,-0.0033362390000000004
-0.02620799,0.03887878,-0.0013733729999999998
-0.01005083,0.06536425,0.018115
-0.07268938,-0.03384321,0.01251784
-0.01765972,-0.13230999999999998,0.01647411
-0.02421797,-0.09694885,-0.0302625
-0.03888746,-0.07253184,-0.02128593
-0.07629865,-0.02812983,-0.007220125
-0.05496237,-0.01728498,0.03716031
-0.08201582,-0.0120878,0.00227685
-0.09527949,-0.1012258,0.01817679
-0.1018818,-0.0816038,0.03369032
-0.1444508,-0.09199724,0.03929455
-0.08755891,-0.08918858,0.01851364
-0.09247579,-0.1005605,0.02517471
-0.08204544,-0.006146274,0.0395192
-0.0796091,0.00036815,0.05241021
-0.08546707,0.06043434,0.03230464
-0.13665139999999998,0.10223380000000001,-0.00235616
0.009011696999999999,0.04851323,0.04943266
-0.01701707,0.02002286,-0.002499683
0.01846275,0.005407605,0.01876865
0.03976744,0.03408694,0.007177441999999999
0.0153982,-0.02350597,-0.02420454
0.02240734,-0.12441120000000001,-0.01252931
0.04298669,-0.12774180000000002,-0.06202055
0.08484714,-0.05590526,-0.05150337
0.02776784,-0.03846321,-0.03829525
-0.006166794000000001,0.04048482,-0.06000992
-0.01551427,-0.05350105,0.009164720999999999
-0.00017069,-0.1095526,0.04277524
-0.03906189,0.006525136,0.02792021
0.0014355239999999999,-0.06558497,-0.004275844
-0.0025304810000000002,-0.07752819,-0.0524966
0.07925529,-0.05413029,-0.02965781
0.014879,0.02061621,-0.04106979
-0.05486076,0.04169561,-0.03115666
-0.00672238,-0.08314046,-0.02143777
0.06519923,-0.08338431,-0.02459587
0.1036038,0.15348299999999998,-0.02716874
0.06269445,0.22017910000000002,-0.01283264
0.01149669,0.1437795,0.007728916999999999
0.04710004,-0.00032630560000000003,-0.01081332
0.11853419999999999,-0.0199427,-0.05730131
0.1037377,0.01100204,-0.07916002
0.05241597,0.07779758,-0.06109875
0.02525832,0.1557308,-0.04110763
0.04615142,0.09944971,0.02634086
0.02620458,0.02941291,0.01292227
0.04725375,0.03563602,0.05593982
0.01641374,-0.02116046,-0.004888275
0.04025386,0.04714785,-0.01788062
0.04900684,0.02961134,0.03990973
-0.01556765,-0.01196729,0.06267354
-0.04945964,0.001204487,0.01608725
0.02735756,-0.03983535,0.03621673
0.005123604,-0.1633063,0.02753756
-0.03260168,-0.2363607,-0.008989312
0.05433198,-0.1549046,0.008917253
-0.037996800000000004,-0.07951235,0.0007110666
-0.06923109,-0.1135422,-0.01124476
-0.05428033,-0.0717472,-0.03307416
-0.04092463,-0.09798346,0.01964831
-0.09296715,-0.1264252,0.0007405831
-0.04130592,-0.10953289999999999,0.025498
-0.08822345,-0.08324586,-0.00314863
-0.03654634,-0.02400902,-0.007046726999999999
-0.05670156,0.02734946,-0.01964666
-0.02573406,-0.005302574,0.03227194
-0.09426553,-0.02396394,-0.06487796
-0.05242614,0.02491767,-0.0511835
-0.06965654,0.01200267,-0.04060873
-0.05269946,-0.009610552,-0.01286243
-0.01320965,-0.00724769,-0.02648918
-0.05787008,-0.06277812,-0.04594314
-0.03050598,-0.02464335,-0.005911113000000001
-0.06559315,-0.005280491,-0.08009014
-0.0269523,0.02479564,0.007404956999999999
-0.00606685,0.02922639,0.02690452
0.01859084,-0.01173526,0.01321987
0.08748759,-0.03085718,0.03462923
0.02104386,0.01177123,0.0006431076000000001
-0.002687321,-0.01384407,-0.03219426
0.02979913,0.0018541870000000002,0.02597273
0.04913429,0.057882100000000006,0.03558984
-0.00010910979999999999,0.01590997,-0.01868466
0.03198331,0.01367796,-0.03522562
0.05262153,-0.05925495,-0.05260165
0.03311969,-0.02154003,-0.1064132
0.06219155,0.04040142,-0.03911431
0.02614266,0.05705317,-0.02677357
0.02842946,0.05230917,-0.03636021
0.06820684,-0.04668317,-0.01756533
0.06770219999999999,-0.08102344,-0.04820075
0.05901985,-0.06400695,-0.03134179
0.04237422,-0.009616956,0.004585162
0.02978243,-0.01025524,0.01444952
0.001319563,-0.001058007,0.0144909
0.02802569,-0.003417443,0.060152300000000006
0.005450234,-0.0017987,0.0003816589
-0.04145627,0.06089871,-0.024384599999999996
-0.04610863,0.02158766,-0.00029391380000000003
-0.001129133,-0.04569866,0.013763599999999999
0.0067742769999999996,-0.08062427,0.02626501
-0.008296854000000001,-0.06369279,0.001133689
-0.02665548,-0.03936115,0.01083871
-0.08508334,-0.03101765,-0.008658765
0.008797919,-0.09238534,0.01561056
0.03490378,-0.02779194,0.03210153
-0.0136269,0.06336368,0.05486768
-0.05235315,0.09897863,0.04544385
-0.04488803,-0.02594728,0.05312588
0.04476049,-0.05143774,0.1018526
-0.04630332,-0.09248231,0.0515915
-0.009607777,-0.07774238,0.02662153
-0.06166275,0.004869577,0.01072516
-0.04895356,0.03112002,0.03072808
-0.01678832,-0.02742052,0.03252655
-0.0156331,-0.04418848,0.03230505
0.003887346,-0.1087864,-0.00831469
0.09336975,-0.025368900000000003,-0.0217775
0.0009138556,-0.09560543,-0.02555766
-0.008568375999999999,-0.006838005,-0.06748948
0.01211168,0.03940637,-0.04064405
0.026513099999999998,-0.009682105,0.02203513
0.04875463,-0.03532722,-0.01512939
0.04471668,-0.08313683,-0.05116714
0.03515285,-0.03389372,-0.003182483
0.04327381,-0.01021787,0.004153059000000001
0.007068547,0.0331214,-0.05577163
0.02888032,0.04232784,-0.02964639
0.03858272,-0.012507899999999999,0.004770459
0.04225972,0.07373122,-0.04879029
0.04839404,-0.00469896,-0.04010457
0.05558968,0.04621327,0.03229118
0.02367118,0.007563684,-0.02190828
0.0170055,0.0226173,-0.02762469
-0.006529618,0.04270911,-0.03134832
0.01232436,0.03313801,-0.005339824
0.03565376,-0.00419334,0.002928736
0.05200982,-0.01595731,-0.009811091999999999
0.04746581,0.01002822,0.011709299999999999
-0.006045399999999999,0.06019748,0.007144208000000001
-0.03225645,0.00685473,0.00794118
0.01392191,-0.003085925,0.0465842
-0.00426356,-0.02772179,0.009810513
0.011298299999999999,-0.01316423,0.03588937
-0.043863400000000004,-0.02919829,0.0275466
-0.07202739999999999,-0.02827162,-0.003753538
-0.01778589,-0.04796703,0.01881504
-0.01036337,-0.02654146,0.007335156999999999
-0.01879328,0.003979349,0.02395736
-0.03613451,-0.03797907,0.01644961
-0.02373656,-0.0039058340000000004,0.009508655999999999
-0.007612193000000001,-0.027128100000000002,0.02062151
0.0196894,-0.004347485,0.0215922
-0.02082724,-0.03363155,-0.009716234
-0.0001292326,-0.047182,0.02292826
-0.03316201,-0.07906467,0.01986417
-0.0248196,-0.05832295,-0.0004932582
-0.02332796,-0.05625453,0.01897821
-0.02580354,-0.01206354,-0.0177977
0.008750421999999999,-0.01666175,0.05068554
-0.03475344,0.04906006,0.01155115
-0.00401519,-0.0005953349,0.043075999999999996
-0.01134163,-0.02881942,0.04962785
-0.02278837,-0.03351256,0.01783098
0.00969213,-0.02829263,0.02368454
0.02188523,-0.01136193,0.01602273
0.001806597,-0.007094744,0.03615099
-0.00628609,-0.01390947,-0.007195054
0.01395899,-0.03554418,-0.02693254
0.03649666,-0.01646474,0.01472638
-0.02817723,-0.01262496,0.01548728
-0.04669378,-0.008122521,-0.01392337
0.02499835,-0.05047578,0.02868679
-0.03316408,-0.05259994,-0.01844826
-0.01902778,-0.07275734,-0.01023534
0.01495271,-0.05222612,0.04344642
0.001745545,-0.08808175,0.05172969
-0.01986573,-0.04838501,-0.007303333
-0.0028811640000000003,-0.003710933,-0.01114421
0.006567423,0.03943883,0.03411834
0.02762383,0.03184124,0.02501699
-0.003404658,-0.009866126999999999,-0.003448306
-0.02382313,0.037273,-0.0620008
0.02427092,0.0033324540000000003,-0.02707715
0.04216386,-0.02768966,-0.03380908
0.002621838,-0.07672808,-0.05526767
0.0371014,-0.06589343,-0.05909450000000001
0.009902989000000001,-0.06021532,-0.01682158
-0.01400916,-0.0015895870000000002,-0.01500715
0.01511502,-0.00350734,0.02760089
-0.05042412,-0.01712587,-0.03294547
-0.01630898,-0.02021094,0.01693726
0.03205149,0.02774902,0.05058493
0.04806171,0.001021953,0.04821368
-0.04901922,-0.006450826,-0.01311468
-0.02755607,0.0314635,0.009609113
-0.02681538,-0.04416652,-0.01501693
-0.05145568,-0.04793547,-0.005867692
-0.0507317,-0.0001888163,-0.01218355
0.01044532,-0.08626338,0.05273613
-0.02402634,-0.06438383,-0.03833528
0.01163424,-0.01240633,-0.006051046
-0.01957472,-0.03672913,-0.01390093
-0.02127907,-0.03255058,0.0185618
-0.018401,0.03510175,-0.01182878
0.03355946,0.03631899,0.03436924
0.01925083,-0.007368441999999999,0.04260296
-0.02902421,0.004522663,0.02084689
-0.02356542,-0.0151857,0.002987767
-0.03334505,-0.02224459,0.0032701270000000003
-0.03503682,-0.01295888,-0.004302526
-0.01927673,-0.01923795,-0.007246158000000001
0.04073069,-0.01602758,0.02241649
0.03595681,0.0038880029999999997,0.005858446999999999
0.01645771,-0.017862,0.004203349
-0.03638847,-0.04399604,-0.03795154
-0.0001198144,-0.02127722,-0.009748274
-0.05896936,-0.06623805,-0.01769289
0.01160253,-0.04774829,-0.001507649
-0.03880242,-0.03857658,-0.03138784
0.02405542,-0.01150753,0.01559736
0.02093674,0.017572499999999998,-0.009107778
0.0250807,-0.02369297,0.012858600000000001
0.03774898,-0.01525582,-0.0070124259999999996
-0.01789947,-0.004211425,-0.03019413
0.007968076999999999,0.02060235,0.02025993
0.01004511,0.01161749,0.01110438
0.009856509,-0.02585752,0.01909319
0.03963389,-0.004848137,0.01552547
0.03770229,-0.009964836999999999,0.01001992
-0.004277925,0.0034360890000000002,-0.004896786
0.02120339,-0.02909872,0.01420728
0.03984342,-0.05891419,0.02143876
-0.01542335,-0.06807826,-0.03003229
0.04099106,-0.05149208,0.03413285
-0.005021438,-0.01591799,-0.03146876
-0.004235297,-0.05132687,-0.0004830984
-0.04531341,-0.03496744,-0.009608719
-0.04380137,0.004595822,-0.006106848000000001
0.0208731,-0.01573667,0.009837667
-0.01829385,0.01830942,0.03164019
-0.0035680509999999996,0.01944222,0.04301056
-0.04940849,-0.01686546,-0.002402022
-0.06271067,-0.006218202,0.0001966711
-0.0213373,0.009825479,0.01314751
0.0076775540000000005,0.003684868,0.02836042
-0.04627297,-0.05113228,-0.02515734
0.07852378,-0.04008972,0.02519107
-0.02085961,0.007570434,-0.005627091
-0.01037251,0.02231405,-0.02403359
0.0008438941999999999,0.02289351,-0.0242944
0.004401368,-0.03407864,-0.022016
-0.01882209,-0.05523605,-0.02082857
0.01953763,-0.07569727,-0.004054462
-0.05053537,-0.03774941,-0.03428049
0.002754595,-0.04107955,0.0041501870000000005
-0.02368843,-0.0766518,0.009767405
0.04513839,0.02891258,0.0115071
0.02437907,-0.0011705539999999999,0.02937617
-0.04184916,0.009654403,-0.001198513
-0.01055428,0.06404939,0.02766564
-0.005904539,-0.009120936999999999,0.02819449
-0.02458573,-0.05212942,-0.01464379
-0.02657889,-0.03142076,0.01026023
0.02147898,-0.05871012,0.0064427930000000005
-0.02569619,-0.03668934,-0.02962755
-0.01200437,-0.01407121,-0.01345054
-0.0006965161,-0.04090203,0.024277299999999998
-0.01512381,0.02023026,0.003101337
0.03080924,0.004370952,0.04271638
-0.03544879,-0.008819913,-0.03085973
-0.05678925,-0.006857316,-0.01576595
-0.0145142,0.005307425,-0.005051797
0.009675994,0.0058278309999999995,0.01736926
-0.02776767,-0.006649926,-0.0513832
-0.02354587,-0.050175,-0.03304721
-0.02389536,-0.0434639,-0.05235036
-0.04807263,-0.05932914,-0.04475394
-0.04102603,-0.05702224,-0.04632135
-0.01461774,-0.02914301,-0.01209907
-0.006521339,-0.01567574,0.005049927
0.0013934879999999998,0.01708284,0.004838732
-0.02182236,-0.01556322,-0.009408363000000001
-0.03338527,-0.02536319,-0.03555061
-0.0006213619,-0.09340791,0.02921235
0.0014683029999999998,0.003209218,0.0019362270000000002
-0.02654671,0.05821788,-0.03996051
0.05002632,-0.07893287,0.006293583
0.04308282,-0.01151882,-0.007129346999999999
-0.03720378,0.06688993,-0.03233605
-0.0018758660000000001,0.08765781,0.01366015
-0.01000459,0.06415977,0.008117268
0.02291952,-0.01566736,0.02487622
0.007319524,-0.04170668,0.02398993
0.01571239,-0.01514342,0.007200719
0.03243175,-0.02993079,0.01357845
0.0003335215,-0.01564959,-0.00135471
-0.006358365,-0.02815344,0.02163503
0.0006858872,-0.00562022,-0.01774517
-0.008179591,-0.015272200000000001,0.02458667
-0.02091875,-0.06488109,-0.009029658000000001
-0.02798523,-0.04399365,0.0017768520000000002
-0.02615844,-0.04441576,-0.03364229
0.0004828389,-0.006962962,-0.001614953
0.01181498,0.03289684,0.03008903
-0.03832575,0.04978214,0.001563075
-0.02936289,0.02448191,0.01061862
-0.0027114009999999996,-0.00202417,0.02775833
0.03597189,0.02235323,0.02831772
0.05462734,0.06851387,0.01628181
0.07763615,0.09834010000000001,0.0200602
0.06100929,0.16138450000000001,0.00853794
0.08264139,0.19300820000000002,0.02684755
0.02933637,0.1115105,0.01808305
0.02127718,0.1309118,0.009675745
0.02826299,0.2379198,0.01138186
-0.05237455,0.008251235,0.01874751
-0.005893073,0.1062308,-0.01890665
0.05450414,0.1951955,-0.000512647
-0.004633774,-0.03976604,0.01951323
0.03253567,-0.2398835,-0.06095912
0.05461161,-0.2452534,-0.07553430000000001
0.06647184,-0.1010635,-0.07635653
0.011827500000000001,-0.2831989,0.04244666
-0.02923971,-0.1200438,0.06372571
-0.107102,-0.1421749,0.04965818
-0.06599528,-0.186567,0.06430832
-0.04612001,-0.1361625,0.04898085
-0.06852219,-0.1876476,0.008316889000000001
-0.02272772,-0.08403304,-0.0056880130000000004
-0.07354287,-0.1851025,0.03136958
-0.03793643,-0.1129558,-0.01442912
-0.03498101,-0.1752354,-0.01933541
0.02414862,-0.2304556,0.01581934
-0.004547334,-0.09285969,0.0031378540000000003
-0.067828,-0.05399264,0.004700048
-0.01307841,0.0130203,-0.008202851
-0.04604249,0.01200742,-0.0177751
-0.01879628,0.04196481,-0.04169716
-0.12996480000000002,-0.05402595,-0.01812449
-0.0517745,-0.03201095,-0.0215956
-0.004048905,-0.03983332,-0.02447334
-0.06191491,-0.10215319999999999,-0.01827483
-0.05053612,0.01230527,-0.02738734
0.09709973,0.03451067,0.18411639999999999
0.060989699999999994,0.01430571,0.16662739999999998
-0.045981,0.058649599999999996,0.04353767
-0.16471070000000002,0.06765751,-0.11996400000000002
-0.02654622,-0.09802654,-0.01355753
0.04309295,-0.1501017,-0.0211547
0.06431447,-0.1909803,-0.02467313
0.04944183,-0.1417443,-0.05955504
0.04241882,-0.08255158,-0.02763041
0.09176242,-0.02866497,-0.02504757
0.02159872,-0.06269,-0.0134191
0.04281542,-0.04058677,0.007912789
0.0435738,-0.09805994,0.01048626
-0.03568434,-0.0783772,-0.01982111
0.04405277,-0.02312784,-0.003581822
0.008478487,0.01197578,-0.02662998
0.006585305,0.10326989999999998,0.04181888
-0.04764194,0.1592263,0.02400137
-0.04396764,0.1835415,0.003482105
-0.006157289,0.08573344,0.004878486
-0.009254752,-0.06357373,-0.04144333
-0.02880646,-0.01084698,-0.08175712
0.01375664,-0.01547529,-0.0448836
0.009640306,-0.02404721,-0.01659781
0.008134433,0.04458987,0.005906387
0.0010574999999999998,0.03251608,-0.02356975
0.06658291,0.04129706,0.02177882
0.02162851,-0.008076053,0.02121866
0.03655051,0.06405073,-0.003927111
0.007100681,0.05724604,-0.03660397
0.004553478,0.07207453,-0.01789967
0.0140382,0.07345372,-0.04082839
0.00431224,0.04599062,0.01741544
-0.01443486,0.007447311,0.04554956
-0.051457,-0.02271565,0.01582889
-0.08760192,-0.06252213,0.01882722
0.009544273,-0.10655899999999999,0.05602064
0.01635463,-0.09187903,0.03612336
-0.0001429422,-0.07706376,0.03851872
-0.03187522,-0.04520434,0.05136944
-0.01283249,-0.01015757,0.03382169
-0.05065127,-0.02647305,0.02887245
-0.05435428,-0.03727768,0.02826143
-0.04009125,-0.06196565,0.06160866
-5.387724e-05,-0.08630289,0.01317362
-0.00382438,-0.0730031,-0.005607644
-0.01051593,-0.06166368,0.0003105751
0.0288358,-0.01534944,0.01654913
-0.01177731,-0.00103816,0.0007845724
-0.03149382,0.02028077,-0.04869208
-0.02945632,0.002387933,-0.05165479
0.0014741020000000001,0.04893994,0.00491146
0.01690718,0.08594563,0.0431801
0.01528634,0.03246817,0.02656027
-0.01231443,-0.03170761,-0.02102845
0.05019184,-0.07939458,-0.008230247
-0.005477129,-0.03806326,-0.02353827
0.04829737,0.008323099,0.01423437
0.02567304,0.0027461309999999997,0.04298505
0.04869246,0.01191201,0.05483943
-0.001525481,-0.019834599999999997,-0.05774439
-0.01843125,-0.02123028,-0.02751761
-0.01575777,-0.02645257,-0.02804106
-0.05700428,0.002236005,-0.05534868
0.02457942,0.06072139,-0.02480756
0.01064866,0.02823826,-0.02564921
0.02883469,-0.05261385,-9.86103e-05
0.02960151,-0.01920611,-0.07606089
0.01752101,-0.08297067,-0.08056236
0.002985326,-0.03878426,-0.08868756
0.04796099,-0.05797025,-0.004562533
0.06519848,0.07711251,0.05190707
0.09176822,0.1406027,0.01818934
0.05569259,0.08303081,0.01387001
0.03360559,0.035630400000000007,-0.01853483
0.05377467,-0.0214268,-0.03375162
0.08109055,-0.02473683,0.01656135
0.019399400000000004,-0.04504711,-0.012483
-0.001312461,0.02179521,-0.03636308
-0.006906822,-0.06684582,-0.006008429
0.0220753,-0.01521752,0.02949104
0.04280456,-0.0226534,0.06217044
-0.02558186,0.02012878,0.01882765
0.007356153000000001,0.01304133,0.06060899
-0.02305926,-0.07493051,0.02310592
-0.06259153,-0.10435,0.0006470177
-0.06033835,-0.07026066,0.02425519
-0.015204599999999999,-0.05013254,0.005229362
-0.03310883,0.02881779,-0.007762967
0.01264712,0.02651465,0.03500352
-0.007478585,0.04285856,0.02704994
-0.009578865,-0.01812964,0.02343397
-0.02302336,-0.04504032,-0.007947485
-0.01356485,-0.07751521,-0.00972845
-0.01476999,-0.02862041,-0.05085338
0.038574199999999996,-0.02843601,-0.01389562
0.04175795,-0.01876598,-0.006690226
0.03138499,-0.03068095,0.003873657
-0.0209312,-0.03893238,0.02676088
0.0033972570000000003,-0.01341697,0.03931341
-0.00648348,0.03160057,-0.01059657
0.02285573,-0.03132432,0.02256389
0.03227812,0.004309001,0.05884282
-0.04491581,-0.02436605,-0.007011708
-0.0286441,0.02743998,0.02844065
-0.01950187,-0.008705543,0.006877532
-0.004365375,-0.03931474,0.02358922
0.02005593,0.0002499968,0.00432694
0.0036055709999999997,-0.01320233,0.02838963
-0.00200273,-0.04205217,-0.008952660999999999
-0.02190368,-0.04228069,-0.01981306
0.01669574,-0.052193399999999994,-0.02287501
0.04387089,-0.01450339,0.005088319
0.02999204,-0.01590627,-0.009586108000000001
0.002602464,-0.0139513,0.007278924
-0.04198264,-0.00478385,-0.03059285
0.02713008,0.0111657,-0.01141988
-0.01939451,-0.02215128,-0.005212207
0.003208393,-0.00290056,-0.02361102
-0.0035501870000000002,-0.0650285,-0.01483096
0.01170165,-0.025654400000000004,-0.006760839
0.01143422,-0.04170905,-0.002547455
0.01782603,-0.01929628,0.015872
-0.03691934,-0.01818371,-0.02439971
-0.004187115,-0.08636369999999999,0.02741394
0.008184077,-0.02615743,-0.005372645
-0.006175854000000001,-0.05922657,0.03327411
0.0224083,0.03732589,0.02735434
-0.0263599,-0.00142511,-0.006148813
0.02691148,-0.05157285,0.009166373
0.03820065,-0.01633886,0.007347234
-0.001119609,0.01416838,-0.009512944
0.02862747,-0.03799907,0.044994
-0.001249506,0.03892652,-0.02579763
0.01555738,0.02125273,0.044157199999999994
0.04750777,0.01779689,0.02043894
-4.8590820000000004e-05,0.01780931,0.01934082
-0.01072244,0.01042506,-0.0008670109
-0.00147028,0.02812614,-0.01033452
0.02368796,0.04997763,0.01591736
-0.009472971,-0.003089536,0.03448826
-0.0002869708,-0.0157899,0.02248918
0.004180904,-0.06428968,0.03375073
-0.02379806,-0.01823329,-0.02213498
-0.03918496,-0.07697736,0.00467207
-0.01642245,-0.09900134,0.01716642
0.0056008080000000005,-0.07544792,0.01680729
-0.004459132,-0.01947958,-0.01014255
-0.05640633,-0.01990765,-0.01652112
-0.0665115,-0.01537922,-0.03622298
-0.04717978,0.01770822,-0.04526366
-0.02054141,-0.0288541,0.008215009
-0.01099675,-0.01051274,0.022631400000000003
-0.02537552,0.01246709,-0.019940799999999998
-0.01087879,-0.02934825,0.02881333
-0.015470500000000002,-0.03121412,-0.01744507
0.04230064,0.01246058,0.006748947
0.01931795,0.01370594,-0.01862631
-0.008937396,-0.006131618,0.01225752
0.01868903,-0.0018770660000000002,0.01867552
0.01418326,0.05206647,-0.03264064
-0.007746374,0.04206754,-0.02887762
-0.0050780109999999995,-0.01575881,-0.00879429
0.03243337,0.01899447,-0.02829878
0.04159184,-0.0219561,-0.03619222
-0.002760549,-0.007035957,-0.04608918
0.03884774,-0.01290755,-0.02598319
0.03858513,-0.01022195,-0.01795343
0.02049841,-0.05504488,0.005376943
0.04054904,0.01011765,-0.007480774
0.01195784,-0.02920779,-0.008148785
-0.04681643,0.01733897,-0.02719955
0.001911454,0.03599729,-0.02018675
0.02328606,-0.03399603,0.02240422
0.01641546,0.01327918,0.009502376
-0.01516623,-0.04277178,-0.00170338
-0.003663213,-0.005756132,0.00021875049999999999
-0.02027464,-0.04525889,-0.008744079
0.009784651,-0.06390384,0.006782359
-0.0028141190000000003,-0.03950508,-0.02651412
0.009540042,-0.02112108,0.02698212
0.002209654,0.01615753,0.01010459
-0.02419804,0.005340265,0.0006388065
0.0121507,-0.02242616,0.008381624
0.03186976,0.0003063582,0.03034427
-0.038003800000000004,0.009535275,-0.01519017
0.006481335,-0.02108304,0.02657007
-0.001289524,0.01137314,0.02527549
-0.006617702,-0.01832021,0.01679264
0.0169806,-0.05074036,0.03570103
-0.00892874,-0.008554161,-0.0180423
-0.01106025,-0.01547133,-0.02395273
0.01002315,0.00822258,-0.01089677
-0.007775759,-0.00036610660000000004,-0.00444893
-0.02168415,-0.01014784,-0.01878238
-0.02030807,-0.03968745,-0.01649435
-0.03354008,-0.08204299,0.003466812
0.01012723,-0.01770508,0.002119937
0.01362082,-0.02219888,0.002527767
0.0024508670000000002,-0.03278844,-0.004747414
-0.03905169,-0.04486327,0.004525688
-0.0389505,-0.01193024,-0.04705808
-0.0027192690000000003,-0.01687465,0.0001777923
0.0037583940000000004,-0.01269399,0.003930965
-0.009382325,-0.04258187,-0.01611661
-0.01418148,-0.03419038,-0.008541926
0.020649200000000003,-0.003011577,-0.02092998
0.01034713,-0.01550229,-0.01303355
-0.006799271,-0.02496745,-0.01488964
-0.0001160172,0.03261286,-0.01960135
0.01663524,0.02780513,-0.01044519
0.02273616,0.022281799999999997,-0.007771414
0.01873783,0.01626877,-0.02116594
-0.007422376,0.0252775,-0.03080961
-0.01549392,-0.01268991,-0.03084245
0.005677990999999999,-0.02845724,-0.01378265
-0.04461354,-0.03179549,-0.03756811
0.004380753,-0.05199195,-0.0007007658000000001
-0.005278305,-0.06709827,-0.0008193881
-0.01852803,-0.03239521,-0.0005689696
-0.001518501,-0.05885601,0.03682838
-0.02797387,-0.06674656,0.02619258
-0.02270743,-0.03712757,0.01604514
-0.003213041,-0.0386769,0.04390699
0.0047988779999999995,-0.006129096999999999,0.02606555
0.0025774739999999997,0.04888491,-0.00605151
-0.02191368,0.04421808,-0.01879948
0.04502219,0.02699751,-0.001383876
0.02211204,0.01437375,-0.01299379
0.03121498,0.01172891,-0.01305252
0.0005105757,0.003084566,-0.02273009
0.028208799999999996,-0.00560909,-0.001674264
0.03475906,-0.04724883,0.008482691
0.04504426,-0.03704455,0.008833445
0.04308443,-0.02435357,0.02704666
-0.01130885,-0.02230791,0.01753618
0.01778492,-0.007485601999999999,0.01193446
0.01059677,-0.03394733,0.03689636
0.007221912,0.007946169,0.01508428
0.00032431990000000003,0.02258508,0.0050408729999999995
-0.03901653,0.01031371,-0.005358463000000001
-0.006227386,-0.01889881,0.05486045
0.00966103,-0.05238762,0.03551435
0.020609,-0.03710441,0.04772347
-0.03495993,-0.01602075,0.003466339
0.01538883,-0.07195669,0.06299886
-0.001872789,-0.06757723,0.05257681
0.01540065,-0.02878114,0.03072876
-0.0011777019999999999,-0.04544485,0.03117339
-0.05120229,0.02942643,-0.03903286
-0.03688329,0.02411111,0.0004146663
-0.01671183,0.00526135,0.01869846
-0.03027088,-0.01430107,0.01099073
-0.03637391,0.01952765,-0.007720711
-0.03440321,-0.02215019,-0.009903504
-0.01660729,-0.02481732,-0.01500106
-4.096248e-05,-0.03792003,-0.005497391
0.0058193080000000005,-0.03765957,-0.0024816260000000002
-0.02697231,0.01458043,-0.029006
0.004468527,-0.02183528,0.0036626270000000003
0.009501944,-0.06705749,-0.01922811
-0.04752598,-0.04960684,-0.02345817
-0.02905629,-0.07656056,-0.008324024000000001
0.01407915,0.01045946,-0.0019420879999999998
-0.01654128,0.0138798,-0.03190299
-0.02973164,-0.01416384,-0.04653483
-0.00651242,-0.024633000000000002,-0.01465119
0.02365617,-0.02460574,-0.02433117
-0.005357695,-0.02255527,-0.009210249
0.0211931,-0.01213399,-0.02440534
-0.005618731,0.02979643,-0.01236976
-0.01857249,-0.02317028,-0.02547215
-0.006832418000000001,-0.02144738,-0.032568
0.01570534,0.0185043,-0.04129557
0.03134726,0.001189886,-0.005053004
0.02270034,-0.03003983,0.02192535
0.02919386,-0.01888327,-0.02846941
0.01973996,0.0017443860000000001,-0.03572065
0.010678,0.01851467,-0.03057582
-0.01408172,0.019863,0.01174871
-0.002548069,-0.003056485,0.01293635
-0.03245919,-0.02744865,-0.0029426179999999997
0.007569269,-0.02987856,-0.008932859
0.00600718,-0.06555714,-0.004230035
0.01408281,0.0008831843,0.02015613
-0.004767191,-0.01039811,0.03311915
-0.05197776,-0.01621647,0.01187585
-0.04857755,-0.008386932,-0.03020278
-0.00863777,0.02880642,-0.03998379
-0.04605103,0.04871016,-0.05300688
-0.02139049,0.03355644,-0.002594524
-0.01474681,0.02531555,-0.03555189
0.02293124,0.03197341,-0.008035506999999999
0.03184206,0.01857951,-0.01132865
-0.001228274,-0.02803426,-0.0131426
0.06944222,-0.006883185,0.02052852
0.04130761,-0.03392259,0.002899461
0.006286008,-0.02847209,-0.008297583
0.03395284,-0.0020133110000000003,0.007216797
0.03593472,-0.01603956,0.0005994246
0.0037412879999999997,0.02635204,-0.02603928
-0.006900872,0.002527866,0.002645792
0.08260285,0.03171448,0.08065887
0.0027372890000000004,-0.02210815,0.02605541
0.06453371,0.04530334,0.08378718
0.02784528,0.1299338,0.0470043
0.04493054,0.09503891,0.06038678
0.02153661,0.04689412,-0.004084114
-0.004487908,-0.07135088,0.01691125
0.06785181,-0.06899007,0.025573500000000002
0.05981772,-0.04602569,0.02014733
-0.01780405,-0.03122072,-0.02241465
-0.005910173,-0.07134809,0.01316764
-0.03704421,-0.10400670000000001,-0.0033324340000000004
-0.002363767,-0.08376016,0.007807884
0.04002259,-0.04190894,0.04986674
0.006492268000000001,-0.1028953,0.04904173
-0.15664229999999998,0.02677066,0.03527863
-0.1374401,-0.11150139999999999,0.04411954
-0.05902496,-0.1441749,0.05885434
-0.04360048,-0.02733957,0.02062329
-0.07061175,-0.03135246,0.04621965
-0.04513306,-0.02995144,0.05790419
-0.1340905,0.13262320000000002,0.0355004
-0.08011729,0.2448991,0.08469692
-0.08858568,0.18271310000000002,0.07035468
-0.07991918,0.03191388,0.04034431
-0.05647074,-0.08882177,0.03278559
0.005511709,-0.16592910000000002,0.01728301
0.007600401,-0.19634690000000002,-0.03383233
0.04980144,-0.1855095,-0.05664333
0.1050885,-0.0664679,-0.05742307
0.02048829,0.13074660000000002,-0.0028192020000000003
-0.01143179,0.06229901,-0.0025186839999999998
0.01790032,0.08317506,-0.005554612
-0.008926581999999999,-0.07923825,0.02209075
-0.009735053,-0.04136976,-0.01032866
-0.04662264,-0.07091233,0.02692535
0.0355349,-0.05926526,0.01340768
0.05139943,-0.18800479999999997,0.0006493647000000001
0.01545992,-0.17422449999999998,-0.06762978
0.02228949,-0.04438159,0.03026874
-0.02734969,-0.06185364,-0.05649542
-0.05546279,-0.06888039,-0.05450371
0.06015496,-0.167298,0.08740664
0.01680922,-0.06595404,-0.009425286
-0.09090541,0.05481971,0.0009568892
-0.09190323,0.1132762,-0.00028873509999999996
-0.07644301,-0.07277627,-0.05504825
-0.02858424,-0.118802,-0.102018
0.005074929000000001,-0.01827086,-0.11075239999999999
-0.004593927,0.05281372,-0.05955613
-0.02708031,0.04444332,-0.05305621
0.03732023,0.0490347,-0.0206778
0.09416837,-0.0035708579999999997,-0.003781749
-0.003937432,0.01784428,-0.08552486
0.04729643,0.01983809,-0.04025671
0.05172354,0.0035589479999999997,-0.06235529
-0.03429741,0.02124713,-0.08337989
0.05457564,-0.09726130000000001,-0.02815655
0.05450015,-0.06835163,-0.029893400000000004
-0.001037349,0.05035131,-0.05577451
-0.0038379940000000004,0.02926912,0.0008091232000000001
-0.05634893,0.06544623,0.00045390379999999997
0.008931157,-0.02877061,0.03022144
0.03227858,-0.05574156,0.04783307
0.01587941,-0.1509973,0.05705694
0.04172223,-0.09372956,0.03337194
-0.02753181,-0.09547045,0.05624383
-0.006362,-0.006388641,0.09145249
-0.09046926,0.11858250000000001,0.002419853
-0.07016426,0.03479697,0.01832812
-0.01664679,-0.04869752,0.01244223
0.07657403,-0.1065471,0.01765503
0.0791183,-0.08889569,0.02391584
0.02223744,0.05053608,-0.02381368
-0.01005167,0.09253468,-0.02721893
0.01823669,-0.04688227,0.06599207
0.01229639,0.05092729,-0.01323029
0.03458259,0.09092919,-0.008756204
0.03456932,0.1468918,-0.03227106
-0.01221291,0.08969213,-0.02099222
0.032834300000000004,0.06399764,-0.03360095
0.005714431999999999,0.06344707,7.938046e-05
-0.02235537,0.02039487,0.0009064199000000001
0.05766129,-0.1275628,0.03450157
0.07402609,-0.1898368,0.014093200000000002
0.04527288,-0.1164655,-0.03185136
-0.02732322,-0.01299879,0.009526276
-0.05849224,-0.1100942,0.011251700000000002
-0.04052541,-0.2665915,0.007982148
0.03983749,-0.2549298,0.03430191
-0.04431569,-0.03159165,0.02293464
0.002479729,0.03420863,0.05870121
-0.03076582,0.04179813,0.06860311
-0.01193571,0.1474191,0.008559967
-0.03282348,0.1224969,-0.003625578
-0.02837355,0.11918730000000001,-0.05058788
-0.00891942,0.0673472,-0.05817453
0.07388061,0.005411554,-0.033680800000000004
0.0746737,0.09784939999999999,-0.04647922
0.05221059,0.08918459,-0.04725798
0.05122603,0.05701406,-0.02231644
0.04964368,0.07713969999999999,-0.03303413
0.03832652,0.018771299999999998,-0.01110652
0.06589405,0.13632260000000002,-0.04024657
0.006258166,0.03949187,0.01832154
-0.03969493,-0.02280086,-0.02637045
-0.008350573,0.0053816590000000004,0.002298136
-0.02265793,-0.003986321,0.022398599999999998
-0.0009719839,0.01713481,0.03148196
0.004768264,-0.04127302,-0.0043677609999999995
-0.0031062240000000003,-0.07368922,-0.06318492
-0.08343743,-0.09273866,-0.07154969
-0.01070332,-0.1490822,-0.03079209
0.02928074,-0.1288136,-0.019114700000000002
-0.001001703,-0.05758216,-0.03689077
-0.01421786,-0.1116607,-0.03051782
-0.01030421,-0.06737475,-0.02536578
0.03786024,-0.09077755,0.01968
0.003137591,-0.06915006,0.003656731
0.0473146,-0.05223068,0.0623776
-0.02124784,0.00410956,0.02227578
-0.02148426,-0.02557952,0.04241624
0.013548900000000001,-0.03675063,-0.004156851
0.003241825,-0.0169739,-0.02956144
-0.009161485,0.03830035,-0.04055751
-0.01201586,0.1253454,0.04515616
-0.05768359,0.1497768,0.03651031
-0.02555819,0.1018727,0.05714694
-0.002717905,0.011523899999999998,0.05828736
-0.04790318,-0.07015724,0.009850016
-0.0394556,-0.11792730000000001,-0.02281761
0.0007738722000000001,-0.132445,0.06238557
-0.02526437,-0.04676794,0.05003658
0.004792234,0.019506700000000002,0.1266663
0.005883925,0.08714523,0.07832509
-0.0401599,0.04583494,0.06948778
-0.02646895,-0.01779204,0.08840999
-0.006528525,-0.05580369,0.07779186
-0.02085633,-0.07801273,0.04107293
-0.01893133,-0.07767829,0.01791198
-0.02943891,-0.05425955,-0.003429029
-0.02543336,-0.005288433,-0.02240644
-0.02264886,-0.07255313,-0.02138724
0.01089603,-0.05722833,0.003245187
0.01935478,-0.07285758,-0.02556014
-0.01826193,0.006194293000000001,-0.007327057
0.009849897,-0.03571541,-0.02100572
-0.03048484,-0.06783568,-0.012979599999999999
0.05357733,-0.08129993,-0.01573621
0.01775887,-0.05540895,-0.03593172
0.03985628,0.031138599999999995,-0.02817999
0.02743387,0.01935886,-0.008405006999999999
0.02040113,0.08226286,-0.03217516
0.01910796,-0.02713347,-0.005602078000000001
0.02940599,0.01768564,-0.03961029
-0.007411509,-0.09033934,-0.03976124
0.05107987,-0.002492435,-0.01411515
-0.007759672,0.08094755,-0.05734192
-0.02060842,0.13831310000000002,-0.03155473
0.006754016999999999,0.05750718,0.006974958000000001
0.04368519,0.0032765570000000003,0.01632371
0.06347109,-0.005633339,0.01152513
0.03436545,-0.05531387,-0.0268628
0.05196296,0.02886895,-0.01459602
0.005457123,0.05562017,-0.01589327
-0.01234474,0.048343300000000006,-0.0215808
0.002824442,0.002608767,-0.03667614
-0.006027035,-0.03309786,-0.02252928
0.02281318,-0.08925283,0.01230469
-0.001078872,-0.07518151,0.001655204
-0.01111092,-0.009042892,-0.01625045
0.01501391,-0.0479308,-0.005368576999999999
-0.04409126,0.0101818,-0.0344221
-0.06291947,-0.02588404,0.03851
0.0167679,-0.00031716380000000003,0.00203513
0.030912099999999998,-0.009015264,0.02203729
0.03358181,0.007022655,-0.008323858
-0.01041349,0.06826959,-0.02700562
-0.004104904,-0.04558144,-0.0353469
0.009165880999999999,-0.05971022,-0.0005433961
0.04570512,-0.04875268,-0.009635688
0.004051298,-0.08443324,-0.009008802
-0.01575422,-0.06284055,-0.01657055
-0.003072637,-0.02397692,-0.00020340630000000002
-0.06798777,-0.1036724,0.003595749
-0.02732489,-0.04228688,-0.01555951
0.02518497,-0.03712378,0.02324144
-0.04968343,0.07718153,0.02366277
-0.02160991,0.1387156,0.05266421
-0.05252081,0.14574520000000002,0.03145638
-0.006919454,0.06481805,0.03064886
-0.04842841,-0.02299584,0.02451773
0.007043847,-0.008723436,0.04548263
0.01209936,-0.05007841,0.01413403
0.006751981,-0.02045079,0.004972600000000001
-0.004651383,-0.07977507,-0.01458014
0.04069911,-0.04447255,0.01628591
0.04043001,-0.10246949999999999,0.00868309
-0.00130524,0.00222674,0.0002527929
-0.05146642,0.008473655,-0.00752412
-0.02956574,0.01507032,0.006703178000000001
-0.050152499999999996,-0.05587773,-0.00805298
-0.02103234,-0.03870388,0.02057196
-0.02311299,-0.06520923,0.02152675
-0.01427447,-0.01931231,-0.01392217
0.01190421,-0.01686034,0.0004321903
0.01770166,-0.05824821,0.01462721
-0.008287242,0.0007559899000000001,0.00204817
-0.03701724,-0.0299099,-0.03052496
-0.02101342,-0.02334655,-0.04198281
-0.004580844000000001,-0.05010717,-0.009335696999999999
0.009623344,-0.05567847,0.009367557
0.0002724549,-0.009688688,-0.02107993
-0.04393663,-0.01991607,-0.03773461
0.0017285179999999999,-0.05685413,-0.00468634
0.02219564,-0.02812121,-0.03371216
0.01720842,-0.05103434,-0.02690239
0.02447225,-0.008274542,-0.0310907
0.005850483,-0.004996106,0.0057631919999999994
-0.01632831,0.01536956,-0.01867259
-0.02696161,0.015174200000000002,0.01197534
-0.03434756,0.05145079,-0.03669994
-0.03896126,0.04283971,-0.03050312
0.01027826,0.04406955,0.03818382
-0.005092414,-0.03571967,0.037195099999999995
-0.00801108,-0.013187299999999999,0.009965347
-0.009488324,-0.06668678,0.01303159
-0.0071960719999999995,-0.03965905,-0.003933396
-0.0337579,-0.02295204,-0.02724044
0.05724907,-0.1093598,0.06027083
0.01758678,-0.03855966,-0.0169043
-0.0003625457,-0.05684669,0.0293163
-0.0133615,-0.02703877,0.005784571999999999
0.0008720756,0.03024303,0.02154267
0.001015209,-0.004869603,-0.003217329
0.0338279,-0.01909253,-0.009795632
0.04500092,-0.02751452,-0.0038736609999999996
0.06094833,-0.001006039,-0.01627574
0.03776121,-0.01283483,-0.0285743
0.0795294,0.04487731,0.01337697
0.06896119,0.06149776,-0.01732371
0.05443198,0.02595206,-0.03087265
0.06834929,-0.04059011,0.02353528
0.05387978,-0.01906776,-0.00033343120000000004
0.04044405,0.005898055,-0.01844973
