Acc_x,Acc_y,Acc_z
0.03101913,-0.02694078,0.0003421828
-0.03961982,0.01142382,0.005962235
-0.017217700000000002,-0.01563416,0.02127611
-0.01028884,0.02251423,0.0014684070000000001
-0.01412844,0.038413300000000004,0.01413286
0.00335275,0.04870669,-0.02490278
0.01746396,0.01446963,-0.03872661
0.001909291,-0.011755700000000001,-0.02239714
-0.03361591,-0.06745538,0.02198723
-0.02450835,-0.026045599999999995,0.00315727
-0.04665153,-0.02570979,0.03383857
0.01207534,-0.11474960000000001,0.02178993
0.05048795,-0.10941179999999999,-0.015602200000000002
-0.03185989,-0.07018299,0.0219442
-0.01747327,-0.08034663,0.02846972
0.01165818,-0.01720836,0.008432367
-0.01025768,0.03707304,-0.01575698
0.00342065,-0.004315279,0.003060534
0.01393401,0.03119143,0.005878663
0.002622555,0.01582476,-0.003351689
0.008022691,0.01646899,-0.02272737
-0.0065442619999999995,-0.02520831,-0.002009273
-0.03909286,-0.03973331,0.009196377
0.01257265,-0.02912309,0.01321229
0.01461401,0.05480256,0.007133677
0.04446919999999999,-0.0033422609999999996,-0.02168708
0.04531202,0.01246125,-0.007450600999999999
-0.005226781,0.07822771,0.02479647
0.005341391,0.02976015,-0.02415934
-0.02069906,-0.0110024,-0.03977146
-0.05574759,-0.05258939,-0.03490512
-0.02191474,-0.0238581,-0.03681475
0.01507043,0.01733902,-0.05272815
-0.03622375,-0.05072036,0.0009663422
-0.0006738342,-0.05076473,-0.05541498
-0.02099461,-0.08060376,-0.03591266
-0.0006577675,-0.05894398,-0.02015483
-0.0349777,0.01319306,0.01660402
0.02874726,0.0009673274000000001,-0.004991902
0.01165929,-0.0008300962,0.006292895
0.03118083,-0.003392971,-0.005710872
0.02067542,0.06814729,-0.005273781
0.02239934,0.04501227,-0.004651929
0.01571188,0.007199008000000001,0.01571314
0.02125589,-0.05634866,0.0169632
0.021258700000000002,-0.07794696,0.03282325
0.0241821,-0.01108932,-0.009694992
0.003536033,-0.02695277,0.04305041
0.009126802,0.0035733279999999997,0.02726345
0.06346627,-0.02568731,-0.008218996999999999
0.0351484,-0.07714364,-0.009978263000000001
0.02896674,-0.01868263,0.001596021
0.01077348,-0.02157992,0.01591776
0.003472873,-0.03780578,0.03202784
0.02686911,-0.0384525,-0.005767466
0.02129125,-0.026486400000000004,0.01542862
-0.02025662,-0.04113518,0.05435219
-0.01941433,-0.006328265,0.0532839
-0.01643581,-0.0016463810000000001,0.03449139
-0.03658544,-0.04524848,0.05932298
-0.01086903,-0.02371576,0.009558374
-0.009593789,-0.04359501,0.009054129000000001
-0.007969194,-0.01432786,0.03477068
0.002356385,0.01577692,0.01848845
-0.04371233,0.0030180740000000004,0.02762838
-0.06211981,-0.002554256,0.04291441
-0.04721648,0.02319728,0.02757075
-0.03064995,-0.03975704,0.05949126
-0.02591629,-0.05263223,0.04555113
-0.03787854,-0.06693168,-9.877328000000002e-05
0.02168141,-0.10725719999999998,-0.04010087
0.01963142,-0.01989435,-0.06141589
0.06488329,0.02507046,-0.08183543
0.04849636,-0.1047662,-0.03977956
0.0137332,-0.03355265,-0.03360889
-0.007449673,-0.06479742,-0.02014171
0.02173501,-0.01746373,0.0001576897
0.001265035,0.05277973,-0.0180327
-0.004701052,0.07981664,0.01531651
-0.008391675999999999,-0.00393408,0.04030116
0.04805486,-0.09628738,-0.001079015
0.04423184,-0.01416837,-0.0285203
0.03237777,0.03119694,0.01340982
-0.02250189,0.2578781,0.04950591
-0.009912051,0.12359189999999999,0.09247748
0.01358052,-0.1653562,0.02390958
-0.01101082,-0.13079649999999998,-0.04513438
0.02719486,-0.1195346,-0.06990849
-0.01549168,-0.08368764,-0.03175296
-0.03262035,-0.0860189,-0.02910496
-0.0365551,0.044789300000000004,-0.1034075
-0.06736607,0.00613746,-0.02162836
-0.03750243,-0.06834134,-0.02342346
-0.04802215,-0.02896245,0.0007667206
0.01905014,-0.06798477,-0.01265259
0.002754892,0.02801162,-0.04413139
0.02725413,0.02051413,-0.01840771
0.02106672,0.02037852,-0.02170053
0.01493222,0.004538205,-0.03112476
0.03855949,-0.05014519,-0.02724163
0.06088625,0.02331999,-0.03359903
0.06205305,0.05843281,-0.01082018
0.03882983,0.00086895,0.02033289
0.04161671,-0.02074285,-0.01686039
0.001481774,-0.0006782686999999999,0.01489962
-0.06054236,-0.04816397,0.009156943
-0.01964661,-0.03387948,0.02182655
0.0006125779,-0.004578829,-0.0065869480000000005
-0.03014602,-0.04600796,0.01532441
-0.009195176999999999,-0.03735635,-0.01128356
0.01862347,-0.00974299,-0.03250191
0.00031273630000000003,-0.05655121,-0.02104385
0.01434384,-0.10485630000000001,0.01821714
-0.01188445,-0.1136318,0.02633258
-0.0526139,-0.05743478,0.02700473
-0.01984607,-0.03904774,0.03517109
-0.04680471,-0.02598086,0.05634425
-0.03686896,-0.04922228,0.06715515
0.008583641,-0.01963936,0.03538487
-0.00100648,0.002731455,-0.01800596
-0.0483063,-0.03321155,0.01556549
-0.01696141,-0.02134136,-0.0009159404
-0.008414051,-0.01797787,0.003751208
-0.03569379,-0.01634435,0.02167147
-0.02955529,-0.03103366,0.02960071
0.001241441,-0.04802413,0.008244172
-0.005158938,-0.04259475,0.002455391
0.03860482,0.05480435,-0.03835642
-0.01180764,-0.005562715,-0.007961872
0.004582589000000001,0.010176600000000001,-0.008071462
0.01447967,0.01223445,0.008083144
0.01392455,0.04946399,-0.01034604
-0.004889315,0.02010955,-0.006939366
-0.02906401,-0.02373157,0.01001196
-0.01375536,-0.03247747,-0.01403295
0.01529932,-0.08420522,0.04661518
0.052773099999999996,-0.03686302,0.01283717
0.07179996,-0.008844971,0.01130272
0.03567521,0.03509635,0.02227244
0.0213664,-0.05587658,0.05241339
0.02589461,-0.04963049,0.03137035
-0.009721067,-0.04222757,0.02083145
0.02408612,-0.07462677,-0.0001021288
0.001128017,-0.03138622,-0.02658259
0.008877521,-0.06684081,0.01407858
-0.03317988,-0.02664377,0.02251469
0.04899146,-0.0702437,-0.009475515
0.007198715,-0.04126439,-0.03587804
-0.02583342,-0.05894590000000001,0.001948077
0.01950416,-0.01493137,-0.03492244
-0.0036051779999999997,-0.04385632,0.008474596
-0.02354243,-0.01133596,-0.01131708
0.01726559,0.03872419,-0.01301808
0.02327581,-0.07467489999999999,0.007251009
-0.001183128,-0.009542732,-0.00452182
-0.004225931,-0.01105342,0.02947677
0.03419081,-0.02530568,0.01155973
0.01128512,-0.02779385,0.01447458
-0.01734251,0.01566457,-0.01240313
0.01595346,-0.01329093,0.001336403
-0.004477180999999999,-0.02779472,0.01709241
0.0049006679999999995,-0.05363765,-0.01136314
0.03290644,-0.007275559,-0.009771970999999999
0.001970847,-0.02388978,-0.02218211
0.04003633,-0.01187096,-0.02927895
-0.03303348,0.0009872811,-0.01150271
0.0006702839999999999,0.01449183,-0.002633706
0.0286461,-0.018217700000000003,6.921310000000001e-05
-0.01362868,-0.04321454,0.04067271
-0.03752018,-0.02380621,0.03633626
-0.04552058,-0.03690671,0.02895497
-0.01139639,-0.03251002,0.01893474
-0.0006254669000000001,-0.04692247,0.05192388
0.03405169,-0.00850841,-0.014806999999999999
-0.008891572,-0.0038994340000000002,0.01499996
-0.03528875,0.0021099779999999998,0.02228418
-0.02791841,-0.01420597,0.03105917
-0.004764211,-0.01677231,-0.00037260660000000003
-0.01014343,-0.0549124,0.01887623
-0.00839345,-0.004978113,-0.004936225
-0.04818398,-0.04336853,0.02048406
0.02650256,-0.05900545,0.003101562
-0.02199025,-0.03155741,-0.01514815
0.018044499999999998,-0.05285472,0.007754159
0.01362524,0.0012071669999999999,-0.03990261
-0.00409863,-0.05325328,0.009192583
-0.05329374,-0.08395037,0.04809441
0.0319148,-0.02878074,-0.0006108209
0.0059737309999999995,0.01871628,-0.001073266
0.02287307,0.02813807,-0.01850386
0.05820608,0.05621834,-0.01411433
-0.05252827,0.05422886,0.02890754
-0.08417831,0.0009085889999999999,0.01604378
-0.04268542,-0.02157595,-0.01059691
-0.05934096,-0.01459204,-0.03690805
-0.03101869,-0.02491159,-0.02784995
-0.03286896,-0.04004179,-0.04726055
-0.039157199999999996,0.008209523,-0.04488821
-0.05987766,-0.04971825,-0.03296569
-0.018949900000000002,-0.042667800000000006,-0.03463777
-0.03837816,-0.0031149109999999997,-0.03626727
-0.02503625,0.01170877,-0.02612461
-0.03007757,-0.008786612,-0.01172965
-0.05040966,-0.002673596,0.001791236
-0.008782933,-0.012794100000000001,0.01051437
0.05000983,-0.01994142,0.005552319
0.04291647,-0.0171072,0.01211919
0.043539499999999995,-0.03617221,0.023928099999999997
0.06455536,-0.00010247340000000001,0.0051459470000000005
0.08299880000000001,0.02053537,-0.03140092
0.02104005,-0.03713353,0.02064675
0.03200627,-0.01096562,-0.00843233
0.05285713,-0.043620099999999995,-0.003232188
0.05782216,-0.05969680000000001,-0.002036501
0.05030717,-0.06991312,-0.007544264
0.02224034,-0.02304201,0.016267700000000003
0.04373375,-0.03510818,-0.01429765
-0.01041839,-0.08684013,0.0463864
-0.04600145,-0.006662331999999999,0.04665978
0.0102803,-0.02958658,0.005156225
0.01893149,-0.01038644,-0.01677394
-0.03935837,-0.01786486,0.004710381
-0.007186799999999999,-0.01439816,0.012628799999999999
-0.02955218,0.01269795,-0.00734059
-0.04584248,0.02171971,0.00145413
-0.03162806,0.02154284,-0.02725377
0.009720245,0.005052226,0.005860909
0.02518763,0.01616902,-0.01056544
0.001834387,-0.04001748,-0.001179843
0.02834045,-0.04846843,0.003873647
0.02363714,-0.006905257,-0.01567513
0.01799343,-0.038236400000000004,0.006134331
0.03967625,-0.00781272,-0.004978052
0.04244336,-0.01833612,0.0014644920000000002
0.02079777,-8.813570999999999e-06,-0.01168202
0.00411731,-0.0009340309,0.02068937
-0.01356923,-0.02216575,0.007004051
0.01212803,-0.07065794,-0.003655121
-0.007323466999999999,-0.03199618,-0.0240065
-0.01188108,-0.04362119,0.004640256
0.01122274,-0.03683185,0.03231932
0.01266989,0.008305453,0.01479674
0.016786000000000002,0.07764348,-0.003817658
-0.02031629,0.007106243000000001,0.004481143
0.01120708,0.03653018,-0.01294899
-0.06131388,0.03177128,-0.001362585
-0.03293173,0.002272794,0.00449808
-0.04214583,-0.01540983,-0.006827636
-0.008703723,-0.05120082,-0.04310029
0.06038064,-0.09118931,-0.05570438
-0.04738447,-0.006728409,-0.01798946
-0.01460424,-0.06650747,-0.01522588
0.01408521,-0.09452588,-0.02667908
-0.002084589,-0.02745675,-0.01124054
-0.02716037,-0.04691209,0.03753985
0.02128842,0.02106312,-0.007696222
-0.01804822,0.02866256,0.01803032
0.01362413,0.02122682,-0.007767765
0.02878994,0.04519659,-0.007779235
-0.0003514397,-0.02583241,0.01230218
0.008798664,-0.01214958,0.002265563
0.00426721,-0.06884015,0.03618442
-0.02146492,-0.043801400000000004,0.009288336999999999
0.005567794,-0.0013670829999999998,0.002577311
0.02569594,-0.04341641,-0.005494672
0.01115313,-0.05704469,0.001911898
0.03101855,-0.05608979,0.004473398
0.01487658,0.004314089,-0.009946024
-0.0002070935,0.0255105,-0.02171563
0.03791233,-0.03074986,-0.01463175
0.007488589,-0.02199086,-0.0048013529999999995
-0.01297076,-0.04302045,0.02124585
-0.03128824,-0.03717513,0.01030857
0.0027116640000000003,0.004815919,0.0108106
-0.04340475,0.0722748,-0.02223205
-0.001871024,0.02844395,0.009655531
-0.01478957,-0.003549389,0.01138005
-0.03338875,0.02592624,0.0145726
-0.02496074,0.01222363,0.01408717
-0.01707462,-0.0238231,0.01371918
-0.01363184,-0.01897444,0.01320363
-0.04596584,-0.05447001,0.04776988
-0.04438215,-0.033077999999999996,0.03192976
-0.04338253,-0.12145430000000002,0.03520426
0.01614841,-0.09189764,0.001970112
-0.04994516,-0.0534684,-0.006426497
-0.03760309,-0.02757768,0.03615858
-0.02374581,0.003487229,0.001208267
-0.01489079,-0.01836919,0.008427442
0.03554937,-0.02090118,0.001385219
0.041033099999999996,-0.05039622,-0.01115225
0.02609487,0.01180734,-0.01281165
0.00161168,-0.02359397,-0.007409692
0.01292987,-0.07273810000000001,0.00719697
0.002286805,0.01429667,-0.01197084
0.008872608,-0.004424704000000001,0.03814113
0.05458881,-0.004835108,0.0134441
0.00273111,0.01585439,0.01032101
-0.01156839,0.02187144,0.043876599999999995
0.01464726,-0.003614105,0.003463705
-0.04243241,-0.06311889,-0.02132683
-0.04137926,-0.02240224,-0.05865537
-0.01453767,-0.22416060000000002,-0.01737718
-0.003742483,0.06167436,-0.07772957
0.0002472841,0.02152293,0.009613745
-0.0020176779999999997,0.05276249,0.03128045
-0.03470901,0.04520608,0.04468907
-0.01309108,0.01969266,0.05660281
0.006372141,0.0007473081,0.03890678
0.01410054,-0.03325726,-0.03377771
-0.00010874680000000001,-0.04987902,-0.01391257
0.02166089,-0.02324926,-0.05067683
0.04656164,-0.008638233,-0.04337996
-0.0211223,-0.09016754,-0.07029505
-0.006566423,0.005572953,-0.06457395
0.02313847,0.03093515,-0.03203414
0.05167516,0.05793619999999999,0.01357514
0.003946995,0.0657299,-0.01474248
0.04391345,0.07945307,-0.06047291
0.04147319,0.08705844,-0.09029281
0.01113315,0.0008995831,0.005836946
0.02480121,-0.06897959,0.02671589
0.0007057877000000001,-0.07727173,-0.01158915
-0.008128522,-0.04787153,-0.01175748
0.0001372783,0.02682262,-0.01874962
0.005194710999999999,-0.0011367719999999999,-0.008550842
-0.01897762,0.01944663,0.03297981
-0.01683984,-0.01429036,0.023185
-0.06202728,-0.05372676,0.02626033
0.0058086119999999995,-0.05708907,-0.001002777
-0.032201099999999996,-0.02758677,-0.0004876927
-0.01306999,-0.01123966,-0.007507145
0.02508677,0.01168483,-0.04404208
-0.008099410999999999,-0.03563221,-0.001503894
0.01849237,-0.06169588,-0.006198149
-0.02913688,0.009239106,-0.03523854
-0.0004351856,0.0165152,-0.02578188
0.01533133,-0.07668678,-0.01955489
-0.002477094,-0.07143292,-0.02558608
-0.006445548000000001,-0.04623844,-0.005171407
-0.05621221,-0.03235958,0.006092934
-0.02161322,-0.04220985,0.006290352
-0.0258205,-0.0002336325,-0.0018968529999999998
-0.01052346,-0.03214215,0.000763265
-0.01498514,-0.03861375,0.0034348129999999997
-0.02316172,-0.04123183,0.01094932
-0.04616358,-0.04601532,0.03319763
0.0590015,-0.09388369,0.01260063
-0.001070742,-0.05879859,0.03673084
0.03842366,-0.08439805,0.03098393
0.026982799999999998,-0.05364211,0.001684795
0.03771161,0.03211195,0.011362899999999999
0.02987643,0.009186172,0.04041886
-0.007258911,-0.0001093964,0.01887639
0.01845446,-0.0142463,-0.03367813
-0.002643071,0.01336978,-0.02989898
0.008773229,-0.01531259,-0.01322062
0.0007868703,-0.04579625,0.008823542
0.05668216,0.007766988000000001,-0.02253051
-0.01307158,-0.04453857,0.006255799
-0.01420438,-0.07345588,-0.04066757
-0.03214414,-0.00171198,-0.05934187
-0.03685929,-0.05595924,-0.01324557
-0.05168272,-0.01225061,0.006635555
-0.01707471,-0.008410538,0.002483077
0.01838905,-0.01898824,0.003194335
-0.004223833,-0.007466451999999999,0.02898064
0.02284831,-0.01562948,0.01728767
-0.01661946,-0.03657976,0.0033679929999999997
0.01764385,-0.05314067,0.04280045
0.01734568,-0.03177362,0.01785174
0.01629941,-0.0364548,0.023725599999999996
0.009837126,-0.03511532,0.04197985
0.02206315,-0.04632198,0.03255505
0.03030716,-0.01564348,-0.01043694
0.0706339,-0.06645295,0.01662756
0.01585494,-0.06020424,0.01946634
0.04065607,-0.03789476,0.0059288380000000005
0.03309969,-0.05273455,0.004353855
-0.004886074,-0.06144089,0.008806859
0.004213299,-0.0407537,0.04519048
0.03007434,-0.02896866,0.02696482
0.01020903,-0.05290375,0.05001106
0.03551598,-0.06594769,0.03720078
-0.02112542,-0.010772499999999999,0.02405215
-0.01956968,-0.0044157070000000005,0.01349858
-0.01832786,0.0038055259999999996,-0.006088540999999999
-0.0022305999999999997,0.01329194,0.02602882
0.009379667,-0.02552926,0.02230338
-0.009293901,-0.03541574,0.03095808
-0.01227261,-0.0277272,0.0184798
-0.03304569,-0.01766696,-0.004821616
-0.01087382,0.01413807,-0.006805271999999999
-0.006468666,-0.009343641,0.000867162
-0.03622925,-0.02588543,-0.007565153000000001
-0.0035724190000000003,-0.01490259,-0.01359518
-0.0008146254,-0.01233268,-0.0024139079999999998
0.01212623,-0.05341846,-0.012215799999999999
0.00955087,-0.0165382,-0.01607874
-0.01125348,0.01562466,-0.01557766
0.01490009,-0.05357456,-0.02229011
-0.005549504,-0.0446814,-0.01347045
0.02862436,-0.040378,-0.01222112
4.89754e-05,0.01422634,0.003330103
0.006287373000000001,0.06879769,0.009050793
9.574549e-05,0.08771354,-0.0032187929999999997
-0.00979255,0.04934479,0.02006246
-0.008756964,-0.07584359,0.0009752432000000001
-0.03240575,-0.08436134,-0.003735408
-0.05375934,-0.00947284,-0.01530041
-0.04154171,-0.013794200000000001,0.006033585
0.01591293,-0.06274744,-0.01688321
-0.03330102,-0.04648802,0.01514115
-0.03183346,-0.09693787,-0.00230996
-0.03217667,-0.04760404,0.01554097
-0.02625619,-0.01746048,0.00537998
-0.02356503,-0.01008634,0.005746833000000001
-0.03184699,-0.03681238,0.008830374
-0.01269912,0.02207358,0.0064479490000000006
0.0007663856,-0.006736496999999999,0.01040066
0.003740083,-0.01735163,0.01449356
-0.02291495,0.002973145,0.00665331
-0.01389833,-0.005018624,0.02732633
0.01367254,-0.03818268,0.02052166
0.05683479,0.01241899,0.002904071
0.02202523,0.020193700000000002,-0.021303400000000004
0.008594576,-0.03623941,-0.0027914579999999997
0.022305099999999998,-0.03405091,-0.03249143
0.01380539,-0.006049222,-0.007885257
-0.0004208114,-0.02473768,-0.009038876
0.008070726,-0.02636885,-0.01102852
-0.01353243,-0.039616399999999996,0.01918735
-0.02240921,-0.05783093,0.02765788
-0.01718577,-0.04848966,0.01229788
-0.04747714,-0.06093027,0.03808698
-0.01264357,-0.06606297,0.02263566
-0.03129675,-0.004192265,-0.004191908
-0.018787,0.0001224307,-0.01046781
-0.01661083,-0.01616295,0.01999663
-0.013608100000000001,-0.005271252,0.006919724
-0.02543479,0.01042924,0.008746931999999999
-0.02752262,-0.03020541,-0.01104555
-0.03289156,-0.02205033,-0.0048213
-0.01156825,-0.03869588,0.01169255
-0.07060604,-0.07184713,0.0396485
-0.02546951,-0.03473371,-0.001791048
0.01489424,-0.06875707,-0.02270035
0.01972294,-0.04744058,-0.03737471
0.001565866,0.002399416,-0.01536574
-0.00485095,0.001820658,-0.02519233
-0.01857561,0.03560859,-0.002695103
-0.01058627,-0.01671665,9.547663000000001e-05
0.02601379,-0.03772841,-0.0261219
-0.01380624,-0.02836612,-0.01743077
0.04497773,0.004144477,-0.05245218
0.02927812,-0.02376419,-0.008115993
0.004887428,-0.05806191,0.0028674140000000004
0.01841147,-0.02288903,0.01199984
0.03112458,-0.05323641,0.02862326
0.03834569,0.004277293,0.01119562
-0.03173703,0.02405766,0.01847186
-0.04268074,0.01445878,0.0102964
-0.02934122,0.02741963,-0.01168477
-0.04479459,0.004151121,-0.02331906
-0.04597382,0.00526773,-0.03322282
0.04585337,-0.040402099999999996,-0.04222921
0.006614313,-0.07971119,-0.008167299
0.01069585,-0.07335547,-0.02267133
0.00881525,-0.07444286,-0.01882872
-0.00032805839999999997,-0.03378733,-0.02592173
-0.02441801,-0.07539502,0.04590829
0.006276229,-0.059315099999999996,-0.01498236
-0.04454048,0.009662218,0.005493875
0.009786507,0.01834583,-0.006345511
-0.005781796,0.04359004,0.03033251
-0.008858375,-0.01801108,0.001704375
0.008960512,-0.02692708,0.01771884
0.02667011,0.01130696,0.02129624
0.01837639,0.01736392,0.01018362
-0.01498072,-0.02198323,0.04229825
0.003295143,-0.01606592,0.05177879
-0.0008348706,-0.00538878,0.01942353
0.02443594,-0.05704644,-0.0007879701
0.03995241,-0.04321488,-0.0035519009999999997
-0.003390023,-0.04497557,0.02065719
0.02628033,-0.03585716,0.02137323
-0.0015886729999999999,-0.05781036,0.01590272
-0.03722347,-0.01705536,-0.0063579890000000005
-0.0253415,-0.01941034,0.02830511
-0.0192466,-0.05602501,0.02499557
-0.05198934,-0.02653507,0.01475916
-0.01477776,-0.01662302,-0.01589912
-0.05014181,0.03631987,-0.006008404
0.0063496740000000005,0.003590145,-0.01195165
-0.01951543,-0.03740438,0.003707675
-0.007696075,0.01139467,0.0016591770000000002
-0.05475106,-0.02825277,0.04373692
-0.0055937569999999995,0.01286976,-0.02258461
-0.02573366,-0.03598983,0.007059425
-0.009947876999999999,-0.04687458,-0.01005747
-0.03605907,-0.06697479,0.01944811
0.00280342,-0.05222657,0.0032393229999999997
-0.06707415,-0.02145507,0.02880167
-0.018809799999999998,-0.07501029,-0.00484342
0.0305784,-0.03315978,-0.04098785
-0.0009193169,0.03007558,-0.0340394
0.04066969,0.014646600000000001,-0.007548214
-0.01650016,0.06905209,-0.02786919
-0.03330769,0.06956255,-0.005157844
-0.03126716,0.04391702,-0.009788949
0.007002574,0.04247534,-0.05447561
-0.04223143,-0.02790036,-0.03814428
0.01616321,-0.03980315,-0.03743761
0.02243971,0.01874785,-0.02540302
0.06271042,-0.05855468,-0.01151814
0.01211902,0.01550288,0.0233725
0.02003817,-0.005622944,0.03862161
0.01788316,-0.07836066,0.0346549
-0.005797002,0.008927985,0.004968537
0.01874542,0.0190806,-0.02367538
-0.05632782,-0.009547857,0.001297609
-0.03463054,-0.0557479,0.005349921999999999
-0.03437636,0.0045002209999999996,-0.03418951
0.002436788,-0.04563494,-0.03511534
0.01773611,-0.07469808,-0.02400754
-0.03556337,-0.06472559,0.00819489
-0.04027453,-0.04295451,-0.01635821
-0.01167917,-0.01709787,-0.02774371
-0.0436092,0.01401985,0.008273396
-0.01190016,-0.005722009,-0.01174824
0.002795205,0.04351386,-0.02484284
0.011511,-0.05714997,0.01693164
0.008022709,0.01107931,0.01371383
0.02148859,0.02648345,0.007441800000000001
0.01135104,-0.01946458,0.03032595
0.07607454,-0.01976755,0.005618041
0.02528562,-0.012442299999999998,0.01854536
0.03203632,-0.02539268,0.04018783
-0.02065061,-0.02580179,0.02835676
-0.01036087,-0.01047316,0.01634493
0.009808293000000001,-0.02427372,0.009558911
0.04006592,-0.03605495,-0.007489598
0.02661885,-0.04971445,0.00324213
-0.03482129,0.06002914,0.0059183659999999996
-0.003499025,0.007072208000000001,0.03965111
0.0033378229999999997,-0.04345006,0.0289868
0.02257137,-0.01651549,-0.0004283404
-0.01649709,-0.01039847,0.01755047
0.01852305,-0.003720725,0.02146646
0.05912913,0.0157955,-0.02436893
-0.029622900000000004,-0.0045984220000000004,0.02072041
-0.01920194,-0.029517400000000003,0.02533705
-0.01550739,-0.01746668,-0.002775512
-0.06830172,-0.01539086,-0.012268799999999998
-0.04132194,0.02284409,-0.01521169
0.02023744,-0.01736816,-0.02859876
0.05155297,-0.05369802,0.02692382
-0.04632078,-0.02748818,0.03843622
-0.02472089,-0.04532367,-0.002800668
-0.02089129,-0.1149807,0.01668788
-0.01204075,-0.08955841,0.034961
-0.009834159,-0.06258236,-0.03008548
-0.02127882,-0.04449239,-0.00950424
0.03627503,0.008505994000000001,-0.031033799999999997
0.01655885,0.0029207440000000003,-0.01082316
0.03865529,0.04440175,-0.02144777
0.0041121659999999996,0.0335393,0.009881522
0.03035424,-0.03405453,-0.02435289
0.009996783,-0.07489730000000001,0.001128827
0.07544542,-0.01613836,-0.0289995
0.03908292,-0.04686874,0.006334679
0.02630509,0.02235173,0.02062388
0.03132313,0.03897105,0.0635076
0.02129526,0.07142194,0.02541927
0.02741003,0.02383544,0.03626093
-0.01013011,-0.002990102,0.004314607
0.007349796,-0.009633899,-0.01646555
-0.008833205,0.02883349,0.004035037
0.02620139,0.006555695,0.02544559
0.02849593,-0.00602556,0.0435956
0.03293264,-0.01946975,0.008320641
0.06407648,-0.03305538,0.007026881
-0.02403759,-0.05911322,0.01412605
-0.01629392,-0.2369328,-0.10939949999999998
-0.01466866,-0.3238904,-0.1293441
-0.006641785,-0.1901295,-0.11353310000000001
-0.03092823,0.07734267,-0.041964499999999995
0.0007179156,0.2364268,0.09723617
0.0387432,0.1048818,0.05134394
0.02511708,-0.08426578,-0.002543614
0.1135249,-0.08985119999999999,-0.13218020000000003
0.09770627,0.04494231,-0.1000703
0.05058944,0.11694639999999999,-0.002430668
0.02067582,0.07239388,0.005661807
0.01956744,0.02807824,0.02697787
-0.06072268,-0.04072927,0.003502523
-0.04037251,-0.0022945179999999997,0.0019246320000000001
-0.04129742,-0.04115086,0.01437065
-0.0004983107,-0.1052415,-0.02548641
0.01406538,-0.09476429,-0.03965072
0.01765095,0.13759860000000002,-0.008762224
0.02588699,0.09919471,0.04872078
0.05466262,0.0009470731,0.01897244
-0.04478663,-0.05663268,-0.020406599999999997
-0.03766144,-0.04759513,-0.02614719
-0.02176732,-0.04281445,-0.02054062
-0.08013909,-0.01004392,0.01040377
-0.06987974,-0.008808933,-0.008153634
-0.026292000000000003,-0.03541906,-0.01868885
-0.04367739,-0.01951001,0.007166075
-0.005991951999999999,-0.01631507,0.008427418
-0.05389781,-0.06858789,0.04013239
-0.007723454,-0.08470107,0.03987293
-0.01604623,-0.12074289999999999,0.04072643
-0.02439606,-0.09912556,0.01805583
-0.0035579440000000004,-0.1509831,0.02804458
-0.03292326,-0.12277919999999999,0.03767309
0.0068504759999999994,-0.05425476,0.02839223
-0.03267778,-0.07860356,0.03542127
0.03381351,-0.08319143,-0.02125571
-0.02049406,-0.02676081,-0.002082943
0.01360019,0.04419041,0.005155943
-0.01321771,0.03375711,0.02943161
-0.02980835,0.01659901,0.0015435879999999998
-0.02643955,0.002726182,0.01140196
-0.01330017,0.02122381,-0.023721799999999998
-0.0020834729999999997,-0.0404422,0.0033926670000000003
-0.03383165,-0.007620263,0.04131561
0.01044947,0.03272235,0.01503507
0.06167626,-0.03353775,0.00741499
-0.01489003,0.02797184,0.01119168
0.03371881,0.06453519,0.005510279
-0.01369757,0.03374234,0.01559427
0.003099625,-0.01074767,-0.00956487
-0.03739142,0.01688564,-0.008858875
-0.003045397,-0.02981329,-0.01713906
0.03389613,-0.1275321,-0.03315397
0.02428632,-0.09119499,-0.04186324
-0.005996243,-0.04257616,-0.007890318
-0.03232202,-0.07804775,0.01537942
-0.042348000000000004,-0.08687566,0.01628712
-0.01949768,-0.008415802,-0.02673804
-0.04824325,0.01660144,-0.02199119
-0.04916158,-0.01928479,1.9734729999999998e-05
-0.002485769,0.0392741,0.00964785
0.03225626,0.02503205,-0.01413026
-0.01414781,-0.02159541,-0.01060766
0.06075789,0.05484492,-0.0257869
0.06534937,0.01638202,-0.01088827
0.07224374,0.02348937,0.007727623
0.01782147,-0.01714877,-0.01136163
0.02871478,-0.04877663,0.00628164
0.02151211,-0.04799271,0.03394453
0.04480743,-0.02263702,0.02630237
-0.00720579,-0.03337945,-0.01372454
0.03741322,-0.03378779,0.001619304
0.04431229,-0.01128945,0.01239924
-0.02733343,0.02496103,0.03204774
-0.0114044,-0.022280200000000003,0.01284872
0.01328102,-0.03795114,-0.00678248
0.02648107,0.02329241,0.001039894
0.031304900000000004,-0.008500731999999999,0.008593896
0.004403112,-0.01463473,0.01604904
0.02215168,-0.01680588,0.03105275
0.01776241,-0.05923017,0.05770258
0.01565646,-0.06654293,0.0522784
-0.004666343,-0.06930658,0.07070428
